[
 {
  "rt": 712.3117048408211, 
  "participant": 0, 
  "stimulus": 0, 
  "timestamp": 1468595079.704256, 
  "trial": 33, 
  "y": 0.033065042123708886, 
  "x": 0.0
 }, 
 {
  "rt": 494.589488145245, 
  "participant": 0, 
  "stimulus": 1, 
  "timestamp": 1468595079.704287, 
  "trial": 4, 
  "y": 0.004839743185043226, 
  "x": 0.02857142857142857
 }, 
 {
  "rt": 431.101076431186, 
  "participant": 0, 
  "stimulus": 2, 
  "timestamp": 1468595079.70429, 
  "trial": 12, 
  "y": 0.006986648209642725, 
  "x": 0.05714285714285714
 }, 
 {
  "rt": 606.3456326712774, 
  "participant": 0, 
  "stimulus": 3, 
  "timestamp": 1468595079.704293, 
  "trial": 15, 
  "y": 0.005400622664814227, 
  "x": 0.08571428571428572
 }, 
 {
  "rt": 919.6319125813553, 
  "participant": 0, 
  "stimulus": 4, 
  "timestamp": 1468595079.704295, 
  "trial": 24, 
  "y": 0.04780064765962551, 
  "x": 0.11428571428571428
 }, 
 {
  "rt": 631.0562139554927, 
  "participant": 0, 
  "stimulus": 5, 
  "timestamp": 1468595079.704298, 
  "trial": 35, 
  "y": 0.002806610294986636, 
  "x": 0.14285714285714285
 }, 
 {
  "rt": 715.6934210799593, 
  "participant": 0, 
  "stimulus": 6, 
  "timestamp": 1468595079.7043, 
  "trial": 34, 
  "y": 0.17640411301262054, 
  "x": 0.17142857142857143
 }, 
 {
  "rt": 560.9009351714434, 
  "participant": 0, 
  "stimulus": 7, 
  "timestamp": 1468595079.704303, 
  "trial": 26, 
  "y": 0.022727122023387707, 
  "x": 0.19999999999999998
 }, 
 {
  "rt": 999.047579650018, 
  "participant": 0, 
  "stimulus": 8, 
  "timestamp": 1468595079.704305, 
  "trial": 8, 
  "y": 0.08353588453128474, 
  "x": 0.22857142857142856
 }, 
 {
  "rt": 794.4471705128335, 
  "participant": 0, 
  "stimulus": 9, 
  "timestamp": 1468595079.704308, 
  "trial": 2, 
  "y": 0.06428757555576525, 
  "x": 0.2571428571428571
 }, 
 {
  "rt": 487.01733458548074, 
  "participant": 0, 
  "stimulus": 10, 
  "timestamp": 1468595079.70431, 
  "trial": 9, 
  "y": 0.3360941081391441, 
  "x": 0.2857142857142857
 }, 
 {
  "rt": 711.0483763367428, 
  "participant": 0, 
  "stimulus": 11, 
  "timestamp": 1468595079.704313, 
  "trial": 28, 
  "y": 0.019506972539044303, 
  "x": 0.3142857142857143
 }, 
 {
  "rt": 633.6650027618454, 
  "participant": 0, 
  "stimulus": 12, 
  "timestamp": 1468595079.704315, 
  "trial": 20, 
  "y": 0.1308065980963307, 
  "x": 0.34285714285714286
 }, 
 {
  "rt": 897.1061400774722, 
  "participant": 0, 
  "stimulus": 13, 
  "timestamp": 1468595079.704317, 
  "trial": 19, 
  "y": 0.15845502752540425, 
  "x": 0.37142857142857144
 }, 
 {
  "rt": 417.7516019002376, 
  "participant": 0, 
  "stimulus": 14, 
  "timestamp": 1468595079.70432, 
  "trial": 31, 
  "y": 0.5333925807909755, 
  "x": 0.39999999999999997
 }, 
 {
  "rt": 296.7836482033652, 
  "participant": 0, 
  "stimulus": 15, 
  "timestamp": 1468595079.704322, 
  "trial": 7, 
  "y": 0.1401340570980734, 
  "x": 0.42857142857142855
 }, 
 {
  "rt": 324.4323994364219, 
  "participant": 0, 
  "stimulus": 16, 
  "timestamp": 1468595079.704324, 
  "trial": 27, 
  "y": 0.3541150260971421, 
  "x": 0.45714285714285713
 }, 
 {
  "rt": 512.6835649208095, 
  "participant": 0, 
  "stimulus": 17, 
  "timestamp": 1468595079.704327, 
  "trial": 21, 
  "y": 0.2648880414056087, 
  "x": 0.4857142857142857
 }, 
 {
  "rt": 871.7417169040058, 
  "participant": 0, 
  "stimulus": 18, 
  "timestamp": 1468595079.704329, 
  "trial": 23, 
  "y": 0.546136112605071, 
  "x": 0.5142857142857142
 }, 
 {
  "rt": 407.4288615859484, 
  "participant": 0, 
  "stimulus": 19, 
  "timestamp": 1468595079.704332, 
  "trial": 29, 
  "y": 0.7332914296686296, 
  "x": 0.5428571428571428
 }, 
 {
  "rt": 717.3645745351712, 
  "participant": 0, 
  "stimulus": 20, 
  "timestamp": 1468595079.704334, 
  "trial": 5, 
  "y": 0.4046002555746215, 
  "x": 0.5714285714285714
 }, 
 {
  "rt": 703.0666592882991, 
  "participant": 0, 
  "stimulus": 21, 
  "timestamp": 1468595079.704336, 
  "trial": 17, 
  "y": 0.895174697189362, 
  "x": 0.6
 }, 
 {
  "rt": 539.7899747617967, 
  "participant": 0, 
  "stimulus": 22, 
  "timestamp": 1468595079.704339, 
  "trial": 22, 
  "y": 0.8991036895508879, 
  "x": 0.6285714285714286
 }, 
 {
  "rt": 215.04355074645142, 
  "participant": 0, 
  "stimulus": 23, 
  "timestamp": 1468595079.704341, 
  "trial": 11, 
  "y": 0.8883426680019045, 
  "x": 0.6571428571428571
 }, 
 {
  "rt": 790.0003991253111, 
  "participant": 0, 
  "stimulus": 24, 
  "timestamp": 1468595079.704343, 
  "trial": 16, 
  "y": 0.9403635059721835, 
  "x": 0.6857142857142857
 }, 
 {
  "rt": 430.0923254469459, 
  "participant": 0, 
  "stimulus": 25, 
  "timestamp": 1468595079.704346, 
  "trial": 6, 
  "y": 0.8113994648701731, 
  "x": 0.7142857142857143
 }, 
 {
  "rt": 510.33685256190955, 
  "participant": 0, 
  "stimulus": 26, 
  "timestamp": 1468595079.704348, 
  "trial": 30, 
  "y": 0.909346462070155, 
  "x": 0.7428571428571429
 }, 
 {
  "rt": 508.08765003834384, 
  "participant": 0, 
  "stimulus": 27, 
  "timestamp": 1468595079.704351, 
  "trial": 18, 
  "y": 0.8555135598465787, 
  "x": 0.7714285714285714
 }, 
 {
  "rt": 743.6950902758754, 
  "participant": 0, 
  "stimulus": 28, 
  "timestamp": 1468595079.704353, 
  "trial": 25, 
  "y": 0.938895112699525, 
  "x": 0.7999999999999999
 }, 
 {
  "rt": 253.23807607035428, 
  "participant": 0, 
  "stimulus": 29, 
  "timestamp": 1468595079.704355, 
  "trial": 3, 
  "y": 0.9784600319739225, 
  "x": 0.8285714285714285
 }, 
 {
  "rt": 626.1444565281014, 
  "participant": 0, 
  "stimulus": 30, 
  "timestamp": 1468595079.704358, 
  "trial": 1, 
  "y": 0.9468371776623492, 
  "x": 0.8571428571428571
 }, 
 {
  "rt": 194.43263913453032, 
  "participant": 0, 
  "stimulus": 31, 
  "timestamp": 1468595079.70436, 
  "trial": 32, 
  "y": 0.9695394668078157, 
  "x": 0.8857142857142857
 }, 
 {
  "rt": 1002.8436374163937, 
  "participant": 0, 
  "stimulus": 32, 
  "timestamp": 1468595079.704362, 
  "trial": 14, 
  "y": 0.9694002114501608, 
  "x": 0.9142857142857143
 }, 
 {
  "rt": 671.3803171768004, 
  "participant": 0, 
  "stimulus": 33, 
  "timestamp": 1468595079.704365, 
  "trial": 13, 
  "y": 0.9729689453256426, 
  "x": 0.9428571428571428
 }, 
 {
  "rt": 505.841489242359, 
  "participant": 0, 
  "stimulus": 34, 
  "timestamp": 1468595079.704367, 
  "trial": 0, 
  "y": 0.9827584227069741, 
  "x": 0.9714285714285714
 }, 
 {
  "rt": 312.64724694528536, 
  "participant": 0, 
  "stimulus": 35, 
  "timestamp": 1468595079.70437, 
  "trial": 10, 
  "y": 0.9932224259257667, 
  "x": 1.0
 }, 
 {
  "rt": 698.5994096265035, 
  "participant": 1, 
  "stimulus": 0, 
  "timestamp": 1468595079.704374, 
  "trial": 32, 
  "y": 0.002199528412471585, 
  "x": 0.0
 }, 
 {
  "rt": 504.99672987686375, 
  "participant": 1, 
  "stimulus": 1, 
  "timestamp": 1468595079.704377, 
  "trial": 11, 
  "y": 0.011207846737833255, 
  "x": 0.02857142857142857
 }, 
 {
  "rt": 426.2521866238907, 
  "participant": 1, 
  "stimulus": 2, 
  "timestamp": 1468595079.704379, 
  "trial": 2, 
  "y": 0.05903534466560621, 
  "x": 0.05714285714285714
 }, 
 {
  "rt": 621.9838384353317, 
  "participant": 1, 
  "stimulus": 3, 
  "timestamp": 1468595079.704382, 
  "trial": 34, 
  "y": 0.03227006665468076, 
  "x": 0.08571428571428572
 }, 
 {
  "rt": 905.1964693555293, 
  "participant": 1, 
  "stimulus": 4, 
  "timestamp": 1468595079.704384, 
  "trial": 7, 
  "y": 0.017141235986462958, 
  "x": 0.11428571428571428
 }, 
 {
  "rt": 647.6690377084178, 
  "participant": 1, 
  "stimulus": 5, 
  "timestamp": 1468595079.704386, 
  "trial": 6, 
  "y": 0.011440857459539202, 
  "x": 0.14285714285714285
 }, 
 {
  "rt": 721.5266111195671, 
  "participant": 1, 
  "stimulus": 6, 
  "timestamp": 1468595079.704389, 
  "trial": 9, 
  "y": 0.01741469833518479, 
  "x": 0.17142857142857143
 }, 
 {
  "rt": 575.9584130625176, 
  "participant": 1, 
  "stimulus": 7, 
  "timestamp": 1468595079.704391, 
  "trial": 20, 
  "y": 0.2128978775669974, 
  "x": 0.19999999999999998
 }, 
 {
  "rt": 993.1855850978591, 
  "participant": 1, 
  "stimulus": 8, 
  "timestamp": 1468595079.704393, 
  "trial": 12, 
  "y": 0.06516314619074838, 
  "x": 0.22857142857142856
 }, 
 {
  "rt": 793.397721784808, 
  "participant": 1, 
  "stimulus": 9, 
  "timestamp": 1468595079.704396, 
  "trial": 27, 
  "y": 0.04455013640621905, 
  "x": 0.2571428571428571
 }, 
 {
  "rt": 493.88901078749507, 
  "participant": 1, 
  "stimulus": 10, 
  "timestamp": 1468595079.704398, 
  "trial": 26, 
  "y": 0.12434179442369309, 
  "x": 0.2857142857142857
 }, 
 {
  "rt": 713.8273787614072, 
  "participant": 1, 
  "stimulus": 11, 
  "timestamp": 1468595079.704401, 
  "trial": 22, 
  "y": 0.5604804784540252, 
  "x": 0.3142857142857143
 }, 
 {
  "rt": 665.6459601383797, 
  "participant": 1, 
  "stimulus": 12, 
  "timestamp": 1468595079.704403, 
  "trial": 5, 
  "y": 0.18980624732641513, 
  "x": 0.34285714285714286
 }, 
 {
  "rt": 898.159635756735, 
  "participant": 1, 
  "stimulus": 13, 
  "timestamp": 1468595079.704406, 
  "trial": 1, 
  "y": 0.3388302935135292, 
  "x": 0.37142857142857144
 }, 
 {
  "rt": 414.2119395731624, 
  "participant": 1, 
  "stimulus": 14, 
  "timestamp": 1468595079.704408, 
  "trial": 14, 
  "y": 0.331849991040283, 
  "x": 0.39999999999999997
 }, 
 {
  "rt": 280.7556486580038, 
  "participant": 1, 
  "stimulus": 15, 
  "timestamp": 1468595079.70441, 
  "trial": 30, 
  "y": 0.2560624828253548, 
  "x": 0.42857142857142855
 }, 
 {
  "rt": 379.1453796038215, 
  "participant": 1, 
  "stimulus": 16, 
  "timestamp": 1468595079.704413, 
  "trial": 35, 
  "y": 0.1720611123234383, 
  "x": 0.45714285714285713
 }, 
 {
  "rt": 511.9038791854426, 
  "participant": 1, 
  "stimulus": 17, 
  "timestamp": 1468595079.704415, 
  "trial": 19, 
  "y": 0.37937547271598093, 
  "x": 0.4857142857142857
 }, 
 {
  "rt": 899.9024456360579, 
  "participant": 1, 
  "stimulus": 18, 
  "timestamp": 1468595079.704418, 
  "trial": 15, 
  "y": 0.4834967243589489, 
  "x": 0.5142857142857142
 }, 
 {
  "rt": 414.98505087677535, 
  "participant": 1, 
  "stimulus": 19, 
  "timestamp": 1468595079.70442, 
  "trial": 4, 
  "y": 0.7340355133564294, 
  "x": 0.5428571428571428
 }, 
 {
  "rt": 682.4580506000035, 
  "participant": 1, 
  "stimulus": 20, 
  "timestamp": 1468595079.704422, 
  "trial": 24, 
  "y": 0.8253853940913966, 
  "x": 0.5714285714285714
 }, 
 {
  "rt": 710.7513435738231, 
  "participant": 1, 
  "stimulus": 21, 
  "timestamp": 1468595079.704425, 
  "trial": 17, 
  "y": 0.8733713534344336, 
  "x": 0.6
 }, 
 {
  "rt": 516.8165254456081, 
  "participant": 1, 
  "stimulus": 22, 
  "timestamp": 1468595079.704427, 
  "trial": 31, 
  "y": 0.8279690840416015, 
  "x": 0.6285714285714286
 }, 
 {
  "rt": 220.01810199062325, 
  "participant": 1, 
  "stimulus": 23, 
  "timestamp": 1468595079.704429, 
  "trial": 0, 
  "y": 0.9210405573984309, 
  "x": 0.6571428571428571
 }, 
 {
  "rt": 789.4769682469, 
  "participant": 1, 
  "stimulus": 24, 
  "timestamp": 1468595079.704431, 
  "trial": 18, 
  "y": 0.7507740668180272, 
  "x": 0.6857142857142857
 }, 
 {
  "rt": 446.28148101492985, 
  "participant": 1, 
  "stimulus": 25, 
  "timestamp": 1468595079.704434, 
  "trial": 23, 
  "y": 0.9675706728914335, 
  "x": 0.7142857142857143
 }, 
 {
  "rt": 545.8626251458396, 
  "participant": 1, 
  "stimulus": 26, 
  "timestamp": 1468595079.704436, 
  "trial": 21, 
  "y": 0.9498602732012472, 
  "x": 0.7428571428571429
 }, 
 {
  "rt": 480.4826279437256, 
  "participant": 1, 
  "stimulus": 27, 
  "timestamp": 1468595079.704439, 
  "trial": 10, 
  "y": 0.9180537863826087, 
  "x": 0.7714285714285714
 }, 
 {
  "rt": 697.1087508802188, 
  "participant": 1, 
  "stimulus": 28, 
  "timestamp": 1468595079.704441, 
  "trial": 13, 
  "y": 0.9703593042607587, 
  "x": 0.7999999999999999
 }, 
 {
  "rt": 283.3520744482447, 
  "participant": 1, 
  "stimulus": 29, 
  "timestamp": 1468595079.704443, 
  "trial": 28, 
  "y": 0.9612141812101709, 
  "x": 0.8285714285714285
 }, 
 {
  "rt": 644.5201538803882, 
  "participant": 1, 
  "stimulus": 30, 
  "timestamp": 1468595079.704446, 
  "trial": 33, 
  "y": 0.9910139742473419, 
  "x": 0.8571428571428571
 }, 
 {
  "rt": 203.683584073333, 
  "participant": 1, 
  "stimulus": 31, 
  "timestamp": 1468595079.704448, 
  "trial": 16, 
  "y": 0.9953994107144233, 
  "x": 0.8857142857142857
 }, 
 {
  "rt": 992.8564313497135, 
  "participant": 1, 
  "stimulus": 32, 
  "timestamp": 1468595079.70445, 
  "trial": 8, 
  "y": 0.9982183507303528, 
  "x": 0.9142857142857143
 }, 
 {
  "rt": 689.9446382205689, 
  "participant": 1, 
  "stimulus": 33, 
  "timestamp": 1468595079.704453, 
  "trial": 25, 
  "y": 0.9540023178149776, 
  "x": 0.9428571428571428
 }, 
 {
  "rt": 536.6571270874347, 
  "participant": 1, 
  "stimulus": 34, 
  "timestamp": 1468595079.704455, 
  "trial": 29, 
  "y": 0.9633912351868655, 
  "x": 0.9714285714285714
 }, 
 {
  "rt": 315.39654003767475, 
  "participant": 1, 
  "stimulus": 35, 
  "timestamp": 1468595079.704457, 
  "trial": 3, 
  "y": 0.988964424149149, 
  "x": 1.0
 }, 
 {
  "rt": 728.9538567783299, 
  "participant": 2, 
  "stimulus": 0, 
  "timestamp": 1468595079.704461, 
  "trial": 8, 
  "y": 0.007845311564975137, 
  "x": 0.0
 }, 
 {
  "rt": 493.77357172318034, 
  "participant": 2, 
  "stimulus": 1, 
  "timestamp": 1468595079.704464, 
  "trial": 6, 
  "y": 0.021080173470275833, 
  "x": 0.02857142857142857
 }, 
 {
  "rt": 414.175178801292, 
  "participant": 2, 
  "stimulus": 2, 
  "timestamp": 1468595079.704466, 
  "trial": 19, 
  "y": 0.01609633346666996, 
  "x": 0.05714285714285714
 }, 
 {
  "rt": 612.6773480924784, 
  "participant": 2, 
  "stimulus": 3, 
  "timestamp": 1468595079.704468, 
  "trial": 0, 
  "y": 0.002097188272769724, 
  "x": 0.08571428571428572
 }, 
 {
  "rt": 895.1073347714331, 
  "participant": 2, 
  "stimulus": 4, 
  "timestamp": 1468595079.704471, 
  "trial": 13, 
  "y": 0.01531714433174247, 
  "x": 0.11428571428571428
 }, 
 {
  "rt": 636.4079085670863, 
  "participant": 2, 
  "stimulus": 5, 
  "timestamp": 1468595079.704473, 
  "trial": 23, 
  "y": 0.060457414057665804, 
  "x": 0.14285714285714285
 }, 
 {
  "rt": 742.2256272251662, 
  "participant": 2, 
  "stimulus": 6, 
  "timestamp": 1468595079.704475, 
  "trial": 28, 
  "y": 0.04497548055058297, 
  "x": 0.17142857142857143
 }, 
 {
  "rt": 529.244445221332, 
  "participant": 2, 
  "stimulus": 7, 
  "timestamp": 1468595079.704478, 
  "trial": 35, 
  "y": 0.0963905722323729, 
  "x": 0.19999999999999998
 }, 
 {
  "rt": 979.0888885215587, 
  "participant": 2, 
  "stimulus": 8, 
  "timestamp": 1468595079.70448, 
  "trial": 9, 
  "y": 0.05037300486842441, 
  "x": 0.22857142857142856
 }, 
 {
  "rt": 790.0710898687709, 
  "participant": 2, 
  "stimulus": 9, 
  "timestamp": 1468595079.704482, 
  "trial": 29, 
  "y": 0.06727451151025761, 
  "x": 0.2571428571428571
 }, 
 {
  "rt": 479.3883734867836, 
  "participant": 2, 
  "stimulus": 10, 
  "timestamp": 1468595079.704485, 
  "trial": 5, 
  "y": 0.12386849163636167, 
  "x": 0.2857142857142857
 }, 
 {
  "rt": 706.6321741188957, 
  "participant": 2, 
  "stimulus": 11, 
  "timestamp": 1468595079.704487, 
  "trial": 1, 
  "y": 0.19044963534791456, 
  "x": 0.3142857142857143
 }, 
 {
  "rt": 609.3490563326549, 
  "participant": 2, 
  "stimulus": 12, 
  "timestamp": 1468595079.704489, 
  "trial": 26, 
  "y": 0.20211480376521038, 
  "x": 0.34285714285714286
 }, 
 {
  "rt": 899.2123808134039, 
  "participant": 2, 
  "stimulus": 13, 
  "timestamp": 1468595079.704492, 
  "trial": 34, 
  "y": 0.23745097146474867, 
  "x": 0.37142857142857144
 }, 
 {
  "rt": 405.88134438847305, 
  "participant": 2, 
  "stimulus": 14, 
  "timestamp": 1468595079.704494, 
  "trial": 17, 
  "y": 0.1583358988647448, 
  "x": 0.39999999999999997
 }, 
 {
  "rt": 281.2835048698922, 
  "participant": 2, 
  "stimulus": 15, 
  "timestamp": 1468595079.704496, 
  "trial": 10, 
  "y": 0.41660597906151436, 
  "x": 0.42857142857142855
 }, 
 {
  "rt": 354.08761978001087, 
  "participant": 2, 
  "stimulus": 16, 
  "timestamp": 1468595079.704498, 
  "trial": 21, 
  "y": 0.4239081860948292, 
  "x": 0.45714285714285713
 }, 
 {
  "rt": 500.6217360782811, 
  "participant": 2, 
  "stimulus": 17, 
  "timestamp": 1468595079.704501, 
  "trial": 27, 
  "y": 0.7284211306451224, 
  "x": 0.4857142857142857
 }, 
 {
  "rt": 870.2125135827096, 
  "participant": 2, 
  "stimulus": 18, 
  "timestamp": 1468595079.704503, 
  "trial": 7, 
  "y": 0.792781691737201, 
  "x": 0.5142857142857142
 }, 
 {
  "rt": 420.2010532047474, 
  "participant": 2, 
  "stimulus": 19, 
  "timestamp": 1468595079.704505, 
  "trial": 3, 
  "y": 0.648790704457067, 
  "x": 0.5428571428571428
 }, 
 {
  "rt": 691.8278103960147, 
  "participant": 2, 
  "stimulus": 20, 
  "timestamp": 1468595079.704508, 
  "trial": 11, 
  "y": 0.5839477762106493, 
  "x": 0.5714285714285714
 }, 
 {
  "rt": 687.1794253973279, 
  "participant": 2, 
  "stimulus": 21, 
  "timestamp": 1468595079.70451, 
  "trial": 15, 
  "y": 0.5893477318331123, 
  "x": 0.6
 }, 
 {
  "rt": 522.8018413063477, 
  "participant": 2, 
  "stimulus": 22, 
  "timestamp": 1468595079.704512, 
  "trial": 16, 
  "y": 0.8467336130052304, 
  "x": 0.6285714285714286
 }, 
 {
  "rt": 243.73792667330846, 
  "participant": 2, 
  "stimulus": 23, 
  "timestamp": 1468595079.704514, 
  "trial": 22, 
  "y": 0.8387245591173205, 
  "x": 0.6571428571428571
 }, 
 {
  "rt": 821.4965316152612, 
  "participant": 2, 
  "stimulus": 24, 
  "timestamp": 1468595079.704517, 
  "trial": 25, 
  "y": 0.8195481519164869, 
  "x": 0.6857142857142857
 }, 
 {
  "rt": 456.19142872928325, 
  "participant": 2, 
  "stimulus": 25, 
  "timestamp": 1468595079.704522, 
  "trial": 12, 
  "y": 0.8990264632017662, 
  "x": 0.7142857142857143
 }, 
 {
  "rt": 503.41160215733214, 
  "participant": 2, 
  "stimulus": 26, 
  "timestamp": 1468595079.704525, 
  "trial": 18, 
  "y": 0.8591890277329997, 
  "x": 0.7428571428571429
 }, 
 {
  "rt": 485.69691443629836, 
  "participant": 2, 
  "stimulus": 27, 
  "timestamp": 1468595079.704527, 
  "trial": 14, 
  "y": 0.9680872854451492, 
  "x": 0.7714285714285714
 }, 
 {
  "rt": 731.6686712178827, 
  "participant": 2, 
  "stimulus": 28, 
  "timestamp": 1468595079.704529, 
  "trial": 20, 
  "y": 0.9277661835289852, 
  "x": 0.7999999999999999
 }, 
 {
  "rt": 275.8363165900384, 
  "participant": 2, 
  "stimulus": 29, 
  "timestamp": 1468595079.704532, 
  "trial": 2, 
  "y": 0.9891235784440201, 
  "x": 0.8285714285714285
 }, 
 {
  "rt": 638.3112054090952, 
  "participant": 2, 
  "stimulus": 30, 
  "timestamp": 1468595079.704534, 
  "trial": 32, 
  "y": 0.9815654163325279, 
  "x": 0.8571428571428571
 }, 
 {
  "rt": 238.73968654942024, 
  "participant": 2, 
  "stimulus": 31, 
  "timestamp": 1468595079.704536, 
  "trial": 24, 
  "y": 0.9884644759230229, 
  "x": 0.8857142857142857
 }, 
 {
  "rt": 1000.7371334959396, 
  "participant": 2, 
  "stimulus": 32, 
  "timestamp": 1468595079.704539, 
  "trial": 31, 
  "y": 0.9546937361917086, 
  "x": 0.9142857142857143
 }, 
 {
  "rt": 698.6748055455549, 
  "participant": 2, 
  "stimulus": 33, 
  "timestamp": 1468595079.704541, 
  "trial": 30, 
  "y": 0.9900280177877142, 
  "x": 0.9428571428571428
 }, 
 {
  "rt": 502.21264141117007, 
  "participant": 2, 
  "stimulus": 34, 
  "timestamp": 1468595079.704543, 
  "trial": 33, 
  "y": 0.99574265095683, 
  "x": 0.9714285714285714
 }, 
 {
  "rt": 306.49779565359444, 
  "participant": 2, 
  "stimulus": 35, 
  "timestamp": 1468595079.704546, 
  "trial": 4, 
  "y": 0.9828135711670875, 
  "x": 1.0
 }, 
 {
  "rt": 697.7067931489673, 
  "participant": 3, 
  "stimulus": 0, 
  "timestamp": 1468595079.70455, 
  "trial": 13, 
  "y": 0.005136577276474907, 
  "x": 0.0
 }, 
 {
  "rt": 497.5958865332316, 
  "participant": 3, 
  "stimulus": 1, 
  "timestamp": 1468595079.704552, 
  "trial": 31, 
  "y": 0.00917849487843981, 
  "x": 0.02857142857142857
 }, 
 {
  "rt": 401.91971295467124, 
  "participant": 3, 
  "stimulus": 2, 
  "timestamp": 1468595079.704554, 
  "trial": 22, 
  "y": 0.003013338626425127, 
  "x": 0.05714285714285714
 }, 
 {
  "rt": 598.2342151870964, 
  "participant": 3, 
  "stimulus": 3, 
  "timestamp": 1468595079.704557, 
  "trial": 27, 
  "y": 0.021296255009450964, 
  "x": 0.08571428571428572
 }, 
 {
  "rt": 902.3425540044234, 
  "participant": 3, 
  "stimulus": 4, 
  "timestamp": 1468595079.704559, 
  "trial": 19, 
  "y": 0.04693219231927798, 
  "x": 0.11428571428571428
 }, 
 {
  "rt": 666.0768253931097, 
  "participant": 3, 
  "stimulus": 5, 
  "timestamp": 1468595079.704561, 
  "trial": 29, 
  "y": 0.011763221140741267, 
  "x": 0.14285714285714285
 }, 
 {
  "rt": 723.5858185349535, 
  "participant": 3, 
  "stimulus": 6, 
  "timestamp": 1468595079.704563, 
  "trial": 26, 
  "y": 0.05044219852333506, 
  "x": 0.17142857142857143
 }, 
 {
  "rt": 532.4730310381449, 
  "participant": 3, 
  "stimulus": 7, 
  "timestamp": 1468595079.704566, 
  "trial": 5, 
  "y": 0.01322564809584552, 
  "x": 0.19999999999999998
 }, 
 {
  "rt": 971.1504230165668, 
  "participant": 3, 
  "stimulus": 8, 
  "timestamp": 1468595079.704568, 
  "trial": 18, 
  "y": 0.05991850251019887, 
  "x": 0.22857142857142856
 }, 
 {
  "rt": 796.7829618268231, 
  "participant": 3, 
  "stimulus": 9, 
  "timestamp": 1468595079.70457, 
  "trial": 33, 
  "y": 0.017219492441047993, 
  "x": 0.2571428571428571
 }, 
 {
  "rt": 492.14618117516324, 
  "participant": 3, 
  "stimulus": 10, 
  "timestamp": 1468595079.704573, 
  "trial": 10, 
  "y": 0.26474711096885273, 
  "x": 0.2857142857142857
 }, 
 {
  "rt": 709.3114743466735, 
  "participant": 3, 
  "stimulus": 11, 
  "timestamp": 1468595079.704575, 
  "trial": 15, 
  "y": 0.19027222220108408, 
  "x": 0.3142857142857143
 }, 
 {
  "rt": 643.5849341229895, 
  "participant": 3, 
  "stimulus": 12, 
  "timestamp": 1468595079.704577, 
  "trial": 17, 
  "y": 0.16853503285830648, 
  "x": 0.34285714285714286
 }, 
 {
  "rt": 927.5785867893131, 
  "participant": 3, 
  "stimulus": 13, 
  "timestamp": 1468595079.70458, 
  "trial": 12, 
  "y": 0.1129580359431516, 
  "x": 0.37142857142857144
 }, 
 {
  "rt": 427.2205264578811, 
  "participant": 3, 
  "stimulus": 14, 
  "timestamp": 1468595079.704582, 
  "trial": 35, 
  "y": 0.5680147469592336, 
  "x": 0.39999999999999997
 }, 
 {
  "rt": 289.95520956191643, 
  "participant": 3, 
  "stimulus": 15, 
  "timestamp": 1468595079.704584, 
  "trial": 32, 
  "y": 0.7777869496256765, 
  "x": 0.42857142857142855
 }, 
 {
  "rt": 346.44743254535575, 
  "participant": 3, 
  "stimulus": 16, 
  "timestamp": 1468595079.704587, 
  "trial": 3, 
  "y": 0.09224275125421516, 
  "x": 0.45714285714285713
 }, 
 {
  "rt": 500.68151854850674, 
  "participant": 3, 
  "stimulus": 17, 
  "timestamp": 1468595079.704589, 
  "trial": 30, 
  "y": 0.7490039184823454, 
  "x": 0.4857142857142857
 }, 
 {
  "rt": 853.48481057677, 
  "participant": 3, 
  "stimulus": 18, 
  "timestamp": 1468595079.704591, 
  "trial": 7, 
  "y": 0.854520821517975, 
  "x": 0.5142857142857142
 }, 
 {
  "rt": 425.58963515879134, 
  "participant": 3, 
  "stimulus": 19, 
  "timestamp": 1468595079.704594, 
  "trial": 2, 
  "y": 0.6827812920282527, 
  "x": 0.5428571428571428
 }, 
 {
  "rt": 695.8951032157995, 
  "participant": 3, 
  "stimulus": 20, 
  "timestamp": 1468595079.704596, 
  "trial": 8, 
  "y": 0.3810763156056268, 
  "x": 0.5714285714285714
 }, 
 {
  "rt": 701.0785884472463, 
  "participant": 3, 
  "stimulus": 21, 
  "timestamp": 1468595079.704598, 
  "trial": 20, 
  "y": 0.8656863957561151, 
  "x": 0.6
 }, 
 {
  "rt": 533.7873928960036, 
  "participant": 3, 
  "stimulus": 22, 
  "timestamp": 1468595079.704601, 
  "trial": 1, 
  "y": 0.7511572756399751, 
  "x": 0.6285714285714286
 }, 
 {
  "rt": 228.73787762879596, 
  "participant": 3, 
  "stimulus": 23, 
  "timestamp": 1468595079.704603, 
  "trial": 21, 
  "y": 0.7246224995315329, 
  "x": 0.6571428571428571
 }, 
 {
  "rt": 810.778274523333, 
  "participant": 3, 
  "stimulus": 24, 
  "timestamp": 1468595079.704605, 
  "trial": 9, 
  "y": 0.6518281381156712, 
  "x": 0.6857142857142857
 }, 
 {
  "rt": 438.23885326161, 
  "participant": 3, 
  "stimulus": 25, 
  "timestamp": 1468595079.704608, 
  "trial": 4, 
  "y": 0.9366357497099408, 
  "x": 0.7142857142857143
 }, 
 {
  "rt": 540.7154800018634, 
  "participant": 3, 
  "stimulus": 26, 
  "timestamp": 1468595079.70461, 
  "trial": 28, 
  "y": 0.9616309016766544, 
  "x": 0.7428571428571429
 }, 
 {
  "rt": 504.26861567760545, 
  "participant": 3, 
  "stimulus": 27, 
  "timestamp": 1468595079.704613, 
  "trial": 6, 
  "y": 0.8900013595957398, 
  "x": 0.7714285714285714
 }, 
 {
  "rt": 735.5537760310681, 
  "participant": 3, 
  "stimulus": 28, 
  "timestamp": 1468595079.704615, 
  "trial": 11, 
  "y": 0.971267592198721, 
  "x": 0.7999999999999999
 }, 
 {
  "rt": 265.0583777859427, 
  "participant": 3, 
  "stimulus": 29, 
  "timestamp": 1468595079.704617, 
  "trial": 25, 
  "y": 0.8948598504061097, 
  "x": 0.8285714285714285
 }, 
 {
  "rt": 661.559097078491, 
  "participant": 3, 
  "stimulus": 30, 
  "timestamp": 1468595079.70462, 
  "trial": 14, 
  "y": 0.9875473329060276, 
  "x": 0.8571428571428571
 }, 
 {
  "rt": 181.49607700071712, 
  "participant": 3, 
  "stimulus": 31, 
  "timestamp": 1468595079.704622, 
  "trial": 16, 
  "y": 0.9802317160424251, 
  "x": 0.8857142857142857
 }, 
 {
  "rt": 978.6188122910214, 
  "participant": 3, 
  "stimulus": 32, 
  "timestamp": 1468595079.704624, 
  "trial": 34, 
  "y": 0.9812252169704003, 
  "x": 0.9142857142857143
 }, 
 {
  "rt": 674.2690806442995, 
  "participant": 3, 
  "stimulus": 33, 
  "timestamp": 1468595079.704627, 
  "trial": 0, 
  "y": 0.9869628002162253, 
  "x": 0.9428571428571428
 }, 
 {
  "rt": 484.8523756188141, 
  "participant": 3, 
  "stimulus": 34, 
  "timestamp": 1468595079.704629, 
  "trial": 23, 
  "y": 0.9962534708823448, 
  "x": 0.9714285714285714
 }, 
 {
  "rt": 305.7464257465956, 
  "participant": 3, 
  "stimulus": 35, 
  "timestamp": 1468595079.704631, 
  "trial": 24, 
  "y": 0.996828618750507, 
  "x": 1.0
 }, 
 {
  "rt": 687.4132106272142, 
  "participant": 4, 
  "stimulus": 0, 
  "timestamp": 1468595079.704635, 
  "trial": 29, 
  "y": 0.011311776622013252, 
  "x": 0.0
 }, 
 {
  "rt": 501.5418429947102, 
  "participant": 4, 
  "stimulus": 1, 
  "timestamp": 1468595079.704637, 
  "trial": 10, 
  "y": 0.01018517645403407, 
  "x": 0.02857142857142857
 }, 
 {
  "rt": 403.55821782954337, 
  "participant": 4, 
  "stimulus": 2, 
  "timestamp": 1468595079.70464, 
  "trial": 13, 
  "y": 0.012732914145232978, 
  "x": 0.05714285714285714
 }, 
 {
  "rt": 611.9516813917152, 
  "participant": 4, 
  "stimulus": 3, 
  "timestamp": 1468595079.704642, 
  "trial": 12, 
  "y": 0.02862375574737047, 
  "x": 0.08571428571428572
 }, 
 {
  "rt": 905.5266751500405, 
  "participant": 4, 
  "stimulus": 4, 
  "timestamp": 1468595079.704644, 
  "trial": 2, 
  "y": 0.02596625096451953, 
  "x": 0.11428571428571428
 }, 
 {
  "rt": 642.2695896533121, 
  "participant": 4, 
  "stimulus": 5, 
  "timestamp": 1468595079.704647, 
  "trial": 3, 
  "y": 0.05270615145440704, 
  "x": 0.14285714285714285
 }, 
 {
  "rt": 711.9304749801794, 
  "participant": 4, 
  "stimulus": 6, 
  "timestamp": 1468595079.704649, 
  "trial": 31, 
  "y": 0.026705139036774666, 
  "x": 0.17142857142857143
 }, 
 {
  "rt": 544.934152182557, 
  "participant": 4, 
  "stimulus": 7, 
  "timestamp": 1468595079.704651, 
  "trial": 14, 
  "y": 0.004342998716177275, 
  "x": 0.19999999999999998
 }, 
 {
  "rt": 981.4274097610457, 
  "participant": 4, 
  "stimulus": 8, 
  "timestamp": 1468595079.704654, 
  "trial": 35, 
  "y": 0.15769742827184124, 
  "x": 0.22857142857142856
 }, 
 {
  "rt": 792.5171776121317, 
  "participant": 4, 
  "stimulus": 9, 
  "timestamp": 1468595079.704656, 
  "trial": 16, 
  "y": 0.43989411854576066, 
  "x": 0.2571428571428571
 }, 
 {
  "rt": 491.89259919464934, 
  "participant": 4, 
  "stimulus": 10, 
  "timestamp": 1468595079.704658, 
  "trial": 22, 
  "y": 0.15427041051611892, 
  "x": 0.2857142857142857
 }, 
 {
  "rt": 713.3936572901194, 
  "participant": 4, 
  "stimulus": 11, 
  "timestamp": 1468595079.704661, 
  "trial": 15, 
  "y": 0.12375975376027801, 
  "x": 0.3142857142857143
 }, 
 {
  "rt": 653.3063915829686, 
  "participant": 4, 
  "stimulus": 12, 
  "timestamp": 1468595079.704663, 
  "trial": 7, 
  "y": 0.1534397600424574, 
  "x": 0.34285714285714286
 }, 
 {
  "rt": 904.3982203417693, 
  "participant": 4, 
  "stimulus": 13, 
  "timestamp": 1468595079.704665, 
  "trial": 27, 
  "y": 0.19706051692468485, 
  "x": 0.37142857142857144
 }, 
 {
  "rt": 409.93176712961684, 
  "participant": 4, 
  "stimulus": 14, 
  "timestamp": 1468595079.704668, 
  "trial": 30, 
  "y": 0.272378056176386, 
  "x": 0.39999999999999997
 }, 
 {
  "rt": 302.12804432088905, 
  "participant": 4, 
  "stimulus": 15, 
  "timestamp": 1468595079.70467, 
  "trial": 33, 
  "y": 0.13748894610376058, 
  "x": 0.42857142857142855
 }, 
 {
  "rt": 369.25885294794375, 
  "participant": 4, 
  "stimulus": 16, 
  "timestamp": 1468595079.704672, 
  "trial": 32, 
  "y": 0.27975728196091204, 
  "x": 0.45714285714285713
 }, 
 {
  "rt": 508.5582477840353, 
  "participant": 4, 
  "stimulus": 17, 
  "timestamp": 1468595079.704675, 
  "trial": 28, 
  "y": 0.24234166478771965, 
  "x": 0.4857142857142857
 }, 
 {
  "rt": 877.4539000621745, 
  "participant": 4, 
  "stimulus": 18, 
  "timestamp": 1468595079.704677, 
  "trial": 21, 
  "y": 0.5966813571579244, 
  "x": 0.5142857142857142
 }, 
 {
  "rt": 427.5635855458675, 
  "participant": 4, 
  "stimulus": 19, 
  "timestamp": 1468595079.704679, 
  "trial": 5, 
  "y": 0.5329348120614311, 
  "x": 0.5428571428571428
 }, 
 {
  "rt": 690.3900580031523, 
  "participant": 4, 
  "stimulus": 20, 
  "timestamp": 1468595079.704681, 
  "trial": 8, 
  "y": 0.7702099436640035, 
  "x": 0.5714285714285714
 }, 
 {
  "rt": 710.0295807332872, 
  "participant": 4, 
  "stimulus": 21, 
  "timestamp": 1468595079.704684, 
  "trial": 23, 
  "y": 0.6953595540442868, 
  "x": 0.6
 }, 
 {
  "rt": 509.842209895476, 
  "participant": 4, 
  "stimulus": 22, 
  "timestamp": 1468595079.704686, 
  "trial": 9, 
  "y": 0.9065355819794626, 
  "x": 0.6285714285714286
 }, 
 {
  "rt": 239.2704304574314, 
  "participant": 4, 
  "stimulus": 23, 
  "timestamp": 1468595079.704688, 
  "trial": 11, 
  "y": 0.8563085497935314, 
  "x": 0.6571428571428571
 }, 
 {
  "rt": 796.007735133191, 
  "participant": 4, 
  "stimulus": 24, 
  "timestamp": 1468595079.704691, 
  "trial": 24, 
  "y": 0.9828396178280866, 
  "x": 0.6857142857142857
 }, 
 {
  "rt": 451.03349429228217, 
  "participant": 4, 
  "stimulus": 25, 
  "timestamp": 1468595079.704693, 
  "trial": 0, 
  "y": 0.561313914166571, 
  "x": 0.7142857142857143
 }, 
 {
  "rt": 496.88273531628363, 
  "participant": 4, 
  "stimulus": 26, 
  "timestamp": 1468595079.704695, 
  "trial": 34, 
  "y": 0.8559010725730736, 
  "x": 0.7428571428571429
 }, 
 {
  "rt": 504.59633170284883, 
  "participant": 4, 
  "stimulus": 27, 
  "timestamp": 1468595079.704698, 
  "trial": 6, 
  "y": 0.9738083179966985, 
  "x": 0.7714285714285714
 }, 
 {
  "rt": 729.4379887800527, 
  "participant": 4, 
  "stimulus": 28, 
  "timestamp": 1468595079.7047, 
  "trial": 19, 
  "y": 0.9960430845009498, 
  "x": 0.7999999999999999
 }, 
 {
  "rt": 269.10142267055846, 
  "participant": 4, 
  "stimulus": 29, 
  "timestamp": 1468595079.704702, 
  "trial": 17, 
  "y": 0.9542214227597239, 
  "x": 0.8285714285714285
 }, 
 {
  "rt": 629.3349624765585, 
  "participant": 4, 
  "stimulus": 30, 
  "timestamp": 1468595079.704705, 
  "trial": 26, 
  "y": 0.9737910951021806, 
  "x": 0.8571428571428571
 }, 
 {
  "rt": 196.76227263866983, 
  "participant": 4, 
  "stimulus": 31, 
  "timestamp": 1468595079.704707, 
  "trial": 20, 
  "y": 0.9741896045314729, 
  "x": 0.8857142857142857
 }, 
 {
  "rt": 980.8904585350127, 
  "participant": 4, 
  "stimulus": 32, 
  "timestamp": 1468595079.704709, 
  "trial": 4, 
  "y": 0.9958244057348391, 
  "x": 0.9142857142857143
 }, 
 {
  "rt": 675.8506394536765, 
  "participant": 4, 
  "stimulus": 33, 
  "timestamp": 1468595079.704712, 
  "trial": 1, 
  "y": 0.9843461938313501, 
  "x": 0.9428571428571428
 }, 
 {
  "rt": 524.9397019029373, 
  "participant": 4, 
  "stimulus": 34, 
  "timestamp": 1468595079.704714, 
  "trial": 18, 
  "y": 0.9954783911869206, 
  "x": 0.9714285714285714
 }, 
 {
  "rt": 318.7308560024605, 
  "participant": 4, 
  "stimulus": 35, 
  "timestamp": 1468595079.704716, 
  "trial": 25, 
  "y": 0.9908081017283095, 
  "x": 1.0
 }, 
 {
  "rt": 713.3326044269728, 
  "participant": 5, 
  "stimulus": 0, 
  "timestamp": 1468595079.70472, 
  "trial": 5, 
  "y": 0.0018838374808255226, 
  "x": 0.0
 }, 
 {
  "rt": 510.1633605262676, 
  "participant": 5, 
  "stimulus": 1, 
  "timestamp": 1468595079.704722, 
  "trial": 9, 
  "y": 0.012119596015125739, 
  "x": 0.02857142857142857
 }, 
 {
  "rt": 395.21312955150944, 
  "participant": 5, 
  "stimulus": 2, 
  "timestamp": 1468595079.704725, 
  "trial": 29, 
  "y": 0.019352591901881027, 
  "x": 0.05714285714285714
 }, 
 {
  "rt": 618.8040835916039, 
  "participant": 5, 
  "stimulus": 3, 
  "timestamp": 1468595079.704727, 
  "trial": 13, 
  "y": 0.05470038096850783, 
  "x": 0.08571428571428572
 }, 
 {
  "rt": 922.9449261185333, 
  "participant": 5, 
  "stimulus": 4, 
  "timestamp": 1468595079.70473, 
  "trial": 18, 
  "y": 0.01856769343441542, 
  "x": 0.11428571428571428
 }, 
 {
  "rt": 666.3896861831455, 
  "participant": 5, 
  "stimulus": 5, 
  "timestamp": 1468595079.704732, 
  "trial": 2, 
  "y": 0.014938083084393457, 
  "x": 0.14285714285714285
 }, 
 {
  "rt": 725.3220177422946, 
  "participant": 5, 
  "stimulus": 6, 
  "timestamp": 1468595079.704734, 
  "trial": 16, 
  "y": 0.06163245057595745, 
  "x": 0.17142857142857143
 }, 
 {
  "rt": 533.8246262655384, 
  "participant": 5, 
  "stimulus": 7, 
  "timestamp": 1468595079.704737, 
  "trial": 7, 
  "y": 0.059565642695641706, 
  "x": 0.19999999999999998
 }, 
 {
  "rt": 962.339321622694, 
  "participant": 5, 
  "stimulus": 8, 
  "timestamp": 1468595079.704739, 
  "trial": 25, 
  "y": 0.08064462141102728, 
  "x": 0.22857142857142856
 }, 
 {
  "rt": 797.880016845427, 
  "participant": 5, 
  "stimulus": 9, 
  "timestamp": 1468595079.704741, 
  "trial": 14, 
  "y": 0.07574020038857707, 
  "x": 0.2571428571428571
 }, 
 {
  "rt": 492.2993896603745, 
  "participant": 5, 
  "stimulus": 10, 
  "timestamp": 1468595079.704743, 
  "trial": 32, 
  "y": 0.2723923296976135, 
  "x": 0.2857142857142857
 }, 
 {
  "rt": 742.7481573699088, 
  "participant": 5, 
  "stimulus": 11, 
  "timestamp": 1468595079.704746, 
  "trial": 24, 
  "y": 0.18427469042342343, 
  "x": 0.3142857142857143
 }, 
 {
  "rt": 657.838411521244, 
  "participant": 5, 
  "stimulus": 12, 
  "timestamp": 1468595079.704748, 
  "trial": 27, 
  "y": 0.5825451107198494, 
  "x": 0.34285714285714286
 }, 
 {
  "rt": 920.842691217466, 
  "participant": 5, 
  "stimulus": 13, 
  "timestamp": 1468595079.704753, 
  "trial": 20, 
  "y": 0.4564462651742671, 
  "x": 0.37142857142857144
 }, 
 {
  "rt": 420.5727734266626, 
  "participant": 5, 
  "stimulus": 14, 
  "timestamp": 1468595079.704756, 
  "trial": 17, 
  "y": 0.4155786796575743, 
  "x": 0.39999999999999997
 }, 
 {
  "rt": 290.5886393285986, 
  "participant": 5, 
  "stimulus": 15, 
  "timestamp": 1468595079.704758, 
  "trial": 26, 
  "y": 0.08772584057870232, 
  "x": 0.42857142857142855
 }, 
 {
  "rt": 349.3450808886924, 
  "participant": 5, 
  "stimulus": 16, 
  "timestamp": 1468595079.704761, 
  "trial": 10, 
  "y": 0.5433280177429008, 
  "x": 0.45714285714285713
 }, 
 {
  "rt": 526.1004988975038, 
  "participant": 5, 
  "stimulus": 17, 
  "timestamp": 1468595079.704763, 
  "trial": 35, 
  "y": 0.5689148305672838, 
  "x": 0.4857142857142857
 }, 
 {
  "rt": 892.522733918867, 
  "participant": 5, 
  "stimulus": 18, 
  "timestamp": 1468595079.704765, 
  "trial": 31, 
  "y": 0.721880516137016, 
  "x": 0.5142857142857142
 }, 
 {
  "rt": 420.0448899891532, 
  "participant": 5, 
  "stimulus": 19, 
  "timestamp": 1468595079.704768, 
  "trial": 1, 
  "y": 0.8135149946659276, 
  "x": 0.5428571428571428
 }, 
 {
  "rt": 681.4906696694334, 
  "participant": 5, 
  "stimulus": 20, 
  "timestamp": 1468595079.70477, 
  "trial": 8, 
  "y": 0.5777167800679168, 
  "x": 0.5714285714285714
 }, 
 {
  "rt": 715.1768645445956, 
  "participant": 5, 
  "stimulus": 21, 
  "timestamp": 1468595079.704772, 
  "trial": 28, 
  "y": 0.8610460756530897, 
  "x": 0.6
 }, 
 {
  "rt": 502.60733095180706, 
  "participant": 5, 
  "stimulus": 22, 
  "timestamp": 1468595079.704774, 
  "trial": 0, 
  "y": 0.673357227967307, 
  "x": 0.6285714285714286
 }, 
 {
  "rt": 259.4927395421548, 
  "participant": 5, 
  "stimulus": 23, 
  "timestamp": 1468595079.704777, 
  "trial": 11, 
  "y": 0.9714270759962448, 
  "x": 0.6571428571428571
 }, 
 {
  "rt": 811.2343799309415, 
  "participant": 5, 
  "stimulus": 24, 
  "timestamp": 1468595079.704779, 
  "trial": 3, 
  "y": 0.6283608368941779, 
  "x": 0.6857142857142857
 }, 
 {
  "rt": 411.8107723261673, 
  "participant": 5, 
  "stimulus": 25, 
  "timestamp": 1468595079.704781, 
  "trial": 22, 
  "y": 0.5943960319958985, 
  "x": 0.7142857142857143
 }, 
 {
  "rt": 518.0101660363347, 
  "participant": 5, 
  "stimulus": 26, 
  "timestamp": 1468595079.704784, 
  "trial": 6, 
  "y": 0.6852165899372368, 
  "x": 0.7428571428571429
 }, 
 {
  "rt": 482.4170009453537, 
  "participant": 5, 
  "stimulus": 27, 
  "timestamp": 1468595079.704786, 
  "trial": 34, 
  "y": 0.8610131113721144, 
  "x": 0.7714285714285714
 }, 
 {
  "rt": 728.6250068134576, 
  "participant": 5, 
  "stimulus": 28, 
  "timestamp": 1468595079.704788, 
  "trial": 4, 
  "y": 0.8677127005639423, 
  "x": 0.7999999999999999
 }, 
 {
  "rt": 277.731262424945, 
  "participant": 5, 
  "stimulus": 29, 
  "timestamp": 1468595079.704791, 
  "trial": 30, 
  "y": 0.994737083843611, 
  "x": 0.8285714285714285
 }, 
 {
  "rt": 637.7794021258541, 
  "participant": 5, 
  "stimulus": 30, 
  "timestamp": 1468595079.704793, 
  "trial": 33, 
  "y": 0.9624904679262491, 
  "x": 0.8571428571428571
 }, 
 {
  "rt": 191.0513357491866, 
  "participant": 5, 
  "stimulus": 31, 
  "timestamp": 1468595079.704795, 
  "trial": 21, 
  "y": 0.9251498124847705, 
  "x": 0.8857142857142857
 }, 
 {
  "rt": 990.5019628711991, 
  "participant": 5, 
  "stimulus": 32, 
  "timestamp": 1468595079.704797, 
  "trial": 23, 
  "y": 0.9948173369848988, 
  "x": 0.9142857142857143
 }, 
 {
  "rt": 682.7916470416679, 
  "participant": 5, 
  "stimulus": 33, 
  "timestamp": 1468595079.7048, 
  "trial": 19, 
  "y": 0.9790007870857039, 
  "x": 0.9428571428571428
 }, 
 {
  "rt": 506.86632403855646, 
  "participant": 5, 
  "stimulus": 34, 
  "timestamp": 1468595079.704802, 
  "trial": 15, 
  "y": 0.9700387848375054, 
  "x": 0.9714285714285714
 }, 
 {
  "rt": 301.08668139033296, 
  "participant": 5, 
  "stimulus": 35, 
  "timestamp": 1468595079.704805, 
  "trial": 12, 
  "y": 0.9972014152492982, 
  "x": 1.0
 }, 
 {
  "rt": 708.3869922056821, 
  "participant": 6, 
  "stimulus": 0, 
  "timestamp": 1468595079.704808, 
  "trial": 22, 
  "y": 0.012411559171930514, 
  "x": 0.0
 }, 
 {
  "rt": 503.1121301152906, 
  "participant": 6, 
  "stimulus": 1, 
  "timestamp": 1468595079.704811, 
  "trial": 14, 
  "y": 0.005770310309418254, 
  "x": 0.02857142857142857
 }, 
 {
  "rt": 418.1477656947883, 
  "participant": 6, 
  "stimulus": 2, 
  "timestamp": 1468595079.704813, 
  "trial": 10, 
  "y": 0.04648473619200939, 
  "x": 0.05714285714285714
 }, 
 {
  "rt": 637.8006268393318, 
  "participant": 6, 
  "stimulus": 3, 
  "timestamp": 1468595079.704815, 
  "trial": 18, 
  "y": 0.01774485357951394, 
  "x": 0.08571428571428572
 }, 
 {
  "rt": 912.3280983271766, 
  "participant": 6, 
  "stimulus": 4, 
  "timestamp": 1468595079.704817, 
  "trial": 15, 
  "y": 0.09619873764655082, 
  "x": 0.11428571428571428
 }, 
 {
  "rt": 649.2688574621895, 
  "participant": 6, 
  "stimulus": 5, 
  "timestamp": 1468595079.70482, 
  "trial": 26, 
  "y": 0.04441749477191645, 
  "x": 0.14285714285714285
 }, 
 {
  "rt": 737.4347159393124, 
  "participant": 6, 
  "stimulus": 6, 
  "timestamp": 1468595079.704822, 
  "trial": 16, 
  "y": 0.15098341236283686, 
  "x": 0.17142857142857143
 }, 
 {
  "rt": 537.2625984156591, 
  "participant": 6, 
  "stimulus": 7, 
  "timestamp": 1468595079.704824, 
  "trial": 28, 
  "y": 0.05262033403714345, 
  "x": 0.19999999999999998
 }, 
 {
  "rt": 983.7406691496567, 
  "participant": 6, 
  "stimulus": 8, 
  "timestamp": 1468595079.704827, 
  "trial": 27, 
  "y": 0.01918923471540436, 
  "x": 0.22857142857142856
 }, 
 {
  "rt": 817.1865364673284, 
  "participant": 6, 
  "stimulus": 9, 
  "timestamp": 1468595079.704829, 
  "trial": 21, 
  "y": 0.5051991177284121, 
  "x": 0.2571428571428571
 }, 
 {
  "rt": 471.2576130743433, 
  "participant": 6, 
  "stimulus": 10, 
  "timestamp": 1468595079.704831, 
  "trial": 1, 
  "y": 0.06364753875982668, 
  "x": 0.2857142857142857
 }, 
 {
  "rt": 727.1071159302852, 
  "participant": 6, 
  "stimulus": 11, 
  "timestamp": 1468595079.704834, 
  "trial": 2, 
  "y": 0.11344945629521647, 
  "x": 0.3142857142857143
 }, 
 {
  "rt": 645.0858190359043, 
  "participant": 6, 
  "stimulus": 12, 
  "timestamp": 1468595079.704836, 
  "trial": 8, 
  "y": 0.09348326317554068, 
  "x": 0.34285714285714286
 }, 
 {
  "rt": 882.979373715669, 
  "participant": 6, 
  "stimulus": 13, 
  "timestamp": 1468595079.704838, 
  "trial": 4, 
  "y": 0.1840555391522615, 
  "x": 0.37142857142857144
 }, 
 {
  "rt": 443.528431350336, 
  "participant": 6, 
  "stimulus": 14, 
  "timestamp": 1468595079.70484, 
  "trial": 33, 
  "y": 0.319226111128033, 
  "x": 0.39999999999999997
 }, 
 {
  "rt": 271.47922012258147, 
  "participant": 6, 
  "stimulus": 15, 
  "timestamp": 1468595079.704843, 
  "trial": 32, 
  "y": 0.37461806735714615, 
  "x": 0.42857142857142855
 }, 
 {
  "rt": 348.21633471300544, 
  "participant": 6, 
  "stimulus": 16, 
  "timestamp": 1468595079.704845, 
  "trial": 6, 
  "y": 0.557851958675993, 
  "x": 0.45714285714285713
 }, 
 {
  "rt": 515.0919979775231, 
  "participant": 6, 
  "stimulus": 17, 
  "timestamp": 1468595079.704847, 
  "trial": 24, 
  "y": 0.8387965651370358, 
  "x": 0.4857142857142857
 }, 
 {
  "rt": 879.9146490910172, 
  "participant": 6, 
  "stimulus": 18, 
  "timestamp": 1468595079.70485, 
  "trial": 30, 
  "y": 0.5055979088571149, 
  "x": 0.5142857142857142
 }, 
 {
  "rt": 428.1819704540828, 
  "participant": 6, 
  "stimulus": 19, 
  "timestamp": 1468595079.704852, 
  "trial": 5, 
  "y": 0.30905322000773094, 
  "x": 0.5428571428571428
 }, 
 {
  "rt": 703.2497956994015, 
  "participant": 6, 
  "stimulus": 20, 
  "timestamp": 1468595079.704854, 
  "trial": 35, 
  "y": 0.38508205084848063, 
  "x": 0.5714285714285714
 }, 
 {
  "rt": 707.0059462857944, 
  "participant": 6, 
  "stimulus": 21, 
  "timestamp": 1468595079.704856, 
  "trial": 17, 
  "y": 0.5827920079771631, 
  "x": 0.6
 }, 
 {
  "rt": 527.5120734198471, 
  "participant": 6, 
  "stimulus": 22, 
  "timestamp": 1468595079.704859, 
  "trial": 7, 
  "y": 0.40408289677226783, 
  "x": 0.6285714285714286
 }, 
 {
  "rt": 261.36180793382266, 
  "participant": 6, 
  "stimulus": 23, 
  "timestamp": 1468595079.704861, 
  "trial": 29, 
  "y": 0.9165568394999635, 
  "x": 0.6571428571428571
 }, 
 {
  "rt": 766.9851200305479, 
  "participant": 6, 
  "stimulus": 24, 
  "timestamp": 1468595079.704863, 
  "trial": 9, 
  "y": 0.7955856247503958, 
  "x": 0.6857142857142857
 }, 
 {
  "rt": 441.79787856990856, 
  "participant": 6, 
  "stimulus": 25, 
  "timestamp": 1468595079.704866, 
  "trial": 25, 
  "y": 0.8619846038799179, 
  "x": 0.7142857142857143
 }, 
 {
  "rt": 514.4587585771919, 
  "participant": 6, 
  "stimulus": 26, 
  "timestamp": 1468595079.704868, 
  "trial": 13, 
  "y": 0.918839288255369, 
  "x": 0.7428571428571429
 }, 
 {
  "rt": 488.04876804755577, 
  "participant": 6, 
  "stimulus": 27, 
  "timestamp": 1468595079.70487, 
  "trial": 19, 
  "y": 0.7887930093133342, 
  "x": 0.7714285714285714
 }, 
 {
  "rt": 719.2517774048705, 
  "participant": 6, 
  "stimulus": 28, 
  "timestamp": 1468595079.704873, 
  "trial": 12, 
  "y": 0.8946065609850055, 
  "x": 0.7999999999999999
 }, 
 {
  "rt": 260.8701870350737, 
  "participant": 6, 
  "stimulus": 29, 
  "timestamp": 1468595079.704875, 
  "trial": 20, 
  "y": 0.9813013048835069, 
  "x": 0.8285714285714285
 }, 
 {
  "rt": 648.2005283538977, 
  "participant": 6, 
  "stimulus": 30, 
  "timestamp": 1468595079.704877, 
  "trial": 23, 
  "y": 0.985079227497677, 
  "x": 0.8571428571428571
 }, 
 {
  "rt": 199.49595677478385, 
  "participant": 6, 
  "stimulus": 31, 
  "timestamp": 1468595079.70488, 
  "trial": 0, 
  "y": 0.9681383197100524, 
  "x": 0.8857142857142857
 }, 
 {
  "rt": 984.0927749323738, 
  "participant": 6, 
  "stimulus": 32, 
  "timestamp": 1468595079.704882, 
  "trial": 31, 
  "y": 0.9974097106902331, 
  "x": 0.9142857142857143
 }, 
 {
  "rt": 682.6860794599959, 
  "participant": 6, 
  "stimulus": 33, 
  "timestamp": 1468595079.704884, 
  "trial": 3, 
  "y": 0.9578252846067679, 
  "x": 0.9428571428571428
 }, 
 {
  "rt": 490.72895001166626, 
  "participant": 6, 
  "stimulus": 34, 
  "timestamp": 1468595079.704887, 
  "trial": 11, 
  "y": 0.987498156347246, 
  "x": 0.9714285714285714
 }, 
 {
  "rt": 333.33824112808077, 
  "participant": 6, 
  "stimulus": 35, 
  "timestamp": 1468595079.704889, 
  "trial": 34, 
  "y": 0.9915839269658171, 
  "x": 1.0
 }, 
 {
  "rt": 747.1066446945064, 
  "participant": 7, 
  "stimulus": 0, 
  "timestamp": 1468595079.704893, 
  "trial": 3, 
  "y": 0.00041240796461243403, 
  "x": 0.0
 }, 
 {
  "rt": 489.88216970329404, 
  "participant": 7, 
  "stimulus": 1, 
  "timestamp": 1468595079.704895, 
  "trial": 32, 
  "y": 0.058593189114814495, 
  "x": 0.02857142857142857
 }, 
 {
  "rt": 433.16786173779116, 
  "participant": 7, 
  "stimulus": 2, 
  "timestamp": 1468595079.704898, 
  "trial": 13, 
  "y": 0.01691924704394867, 
  "x": 0.05714285714285714
 }, 
 {
  "rt": 603.2162831947986, 
  "participant": 7, 
  "stimulus": 3, 
  "timestamp": 1468595079.7049, 
  "trial": 25, 
  "y": 0.005555220112310694, 
  "x": 0.08571428571428572
 }, 
 {
  "rt": 916.0826993229003, 
  "participant": 7, 
  "stimulus": 4, 
  "timestamp": 1468595079.704902, 
  "trial": 33, 
  "y": 0.141125964411685, 
  "x": 0.11428571428571428
 }, 
 {
  "rt": 649.7024917459596, 
  "participant": 7, 
  "stimulus": 5, 
  "timestamp": 1468595079.704905, 
  "trial": 11, 
  "y": 0.04807304992531743, 
  "x": 0.14285714285714285
 }, 
 {
  "rt": 761.2625675219616, 
  "participant": 7, 
  "stimulus": 6, 
  "timestamp": 1468595079.704907, 
  "trial": 27, 
  "y": 0.05436232416752287, 
  "x": 0.17142857142857143
 }, 
 {
  "rt": 548.5888497011675, 
  "participant": 7, 
  "stimulus": 7, 
  "timestamp": 1468595079.70491, 
  "trial": 34, 
  "y": 0.02641640692421792, 
  "x": 0.19999999999999998
 }, 
 {
  "rt": 988.7623799983676, 
  "participant": 7, 
  "stimulus": 8, 
  "timestamp": 1468595079.704912, 
  "trial": 16, 
  "y": 0.06862129930154967, 
  "x": 0.22857142857142856
 }, 
 {
  "rt": 802.4721919606061, 
  "participant": 7, 
  "stimulus": 9, 
  "timestamp": 1468595079.704914, 
  "trial": 5, 
  "y": 0.018812320684694683, 
  "x": 0.2571428571428571
 }, 
 {
  "rt": 468.83383105588734, 
  "participant": 7, 
  "stimulus": 10, 
  "timestamp": 1468595079.704917, 
  "trial": 21, 
  "y": 0.20622519505966938, 
  "x": 0.2857142857142857
 }, 
 {
  "rt": 692.7549669984318, 
  "participant": 7, 
  "stimulus": 11, 
  "timestamp": 1468595079.704919, 
  "trial": 2, 
  "y": 0.09695011952383448, 
  "x": 0.3142857142857143
 }, 
 {
  "rt": 642.1537310583889, 
  "participant": 7, 
  "stimulus": 12, 
  "timestamp": 1468595079.704921, 
  "trial": 30, 
  "y": 0.19195134034108355, 
  "x": 0.34285714285714286
 }, 
 {
  "rt": 919.000240037069, 
  "participant": 7, 
  "stimulus": 13, 
  "timestamp": 1468595079.704924, 
  "trial": 6, 
  "y": 0.4790973340037571, 
  "x": 0.37142857142857144
 }, 
 {
  "rt": 412.5725725071439, 
  "participant": 7, 
  "stimulus": 14, 
  "timestamp": 1468595079.704926, 
  "trial": 24, 
  "y": 0.32843940494902735, 
  "x": 0.39999999999999997
 }, 
 {
  "rt": 277.6377326671852, 
  "participant": 7, 
  "stimulus": 15, 
  "timestamp": 1468595079.704928, 
  "trial": 31, 
  "y": 0.3889285434168308, 
  "x": 0.42857142857142855
 }, 
 {
  "rt": 366.61424935187415, 
  "participant": 7, 
  "stimulus": 16, 
  "timestamp": 1468595079.704931, 
  "trial": 0, 
  "y": 0.46205506688461, 
  "x": 0.45714285714285713
 }, 
 {
  "rt": 521.5079966143772, 
  "participant": 7, 
  "stimulus": 17, 
  "timestamp": 1468595079.704933, 
  "trial": 29, 
  "y": 0.2939806395082599, 
  "x": 0.4857142857142857
 }, 
 {
  "rt": 896.5531560897759, 
  "participant": 7, 
  "stimulus": 18, 
  "timestamp": 1468595079.704935, 
  "trial": 17, 
  "y": 0.7268823265785537, 
  "x": 0.5142857142857142
 }, 
 {
  "rt": 420.3145153759317, 
  "participant": 7, 
  "stimulus": 19, 
  "timestamp": 1468595079.704938, 
  "trial": 20, 
  "y": 0.8778183209989094, 
  "x": 0.5428571428571428
 }, 
 {
  "rt": 690.1146323665213, 
  "participant": 7, 
  "stimulus": 20, 
  "timestamp": 1468595079.70494, 
  "trial": 1, 
  "y": 0.8135268050401925, 
  "x": 0.5714285714285714
 }, 
 {
  "rt": 681.8878665584821, 
  "participant": 7, 
  "stimulus": 21, 
  "timestamp": 1468595079.704942, 
  "trial": 23, 
  "y": 0.8681739462400229, 
  "x": 0.6
 }, 
 {
  "rt": 498.6942542443387, 
  "participant": 7, 
  "stimulus": 22, 
  "timestamp": 1468595079.704945, 
  "trial": 10, 
  "y": 0.6007120262574452, 
  "x": 0.6285714285714286
 }, 
 {
  "rt": 239.46520279112224, 
  "participant": 7, 
  "stimulus": 23, 
  "timestamp": 1468595079.704947, 
  "trial": 8, 
  "y": 0.6689946109950367, 
  "x": 0.6571428571428571
 }, 
 {
  "rt": 822.5809582250595, 
  "participant": 7, 
  "stimulus": 24, 
  "timestamp": 1468595079.704949, 
  "trial": 19, 
  "y": 0.6025895915539475, 
  "x": 0.6857142857142857
 }, 
 {
  "rt": 443.23247838676986, 
  "participant": 7, 
  "stimulus": 25, 
  "timestamp": 1468595079.704952, 
  "trial": 35, 
  "y": 0.966917547308544, 
  "x": 0.7142857142857143
 }, 
 {
  "rt": 517.6566133239276, 
  "participant": 7, 
  "stimulus": 26, 
  "timestamp": 1468595079.704954, 
  "trial": 28, 
  "y": 0.897926177979206, 
  "x": 0.7428571428571429
 }, 
 {
  "rt": 480.62363477912305, 
  "participant": 7, 
  "stimulus": 27, 
  "timestamp": 1468595079.704956, 
  "trial": 7, 
  "y": 0.9839225522343904, 
  "x": 0.7714285714285714
 }, 
 {
  "rt": 721.5848561647007, 
  "participant": 7, 
  "stimulus": 28, 
  "timestamp": 1468595079.704958, 
  "trial": 4, 
  "y": 0.9018621286630844, 
  "x": 0.7999999999999999
 }, 
 {
  "rt": 269.135374714361, 
  "participant": 7, 
  "stimulus": 29, 
  "timestamp": 1468595079.704961, 
  "trial": 18, 
  "y": 0.9452258384321718, 
  "x": 0.8285714285714285
 }, 
 {
  "rt": 636.8187535135537, 
  "participant": 7, 
  "stimulus": 30, 
  "timestamp": 1468595079.704963, 
  "trial": 14, 
  "y": 0.9750801174519582, 
  "x": 0.8571428571428571
 }, 
 {
  "rt": 224.9810875824798, 
  "participant": 7, 
  "stimulus": 31, 
  "timestamp": 1468595079.704965, 
  "trial": 26, 
  "y": 0.9916622809734167, 
  "x": 0.8857142857142857
 }, 
 {
  "rt": 984.2234607028604, 
  "participant": 7, 
  "stimulus": 32, 
  "timestamp": 1468595079.704968, 
  "trial": 15, 
  "y": 0.9852783840572729, 
  "x": 0.9142857142857143
 }, 
 {
  "rt": 688.4200861827653, 
  "participant": 7, 
  "stimulus": 33, 
  "timestamp": 1468595079.70497, 
  "trial": 12, 
  "y": 0.9904318025958911, 
  "x": 0.9428571428571428
 }, 
 {
  "rt": 505.70152190469145, 
  "participant": 7, 
  "stimulus": 34, 
  "timestamp": 1468595079.704972, 
  "trial": 22, 
  "y": 0.9912578044547279, 
  "x": 0.9714285714285714
 }, 
 {
  "rt": 314.7568814716601, 
  "participant": 7, 
  "stimulus": 35, 
  "timestamp": 1468595079.704975, 
  "trial": 9, 
  "y": 0.9943878181282345, 
  "x": 1.0
 }, 
 {
  "rt": 732.8899105656739, 
  "participant": 8, 
  "stimulus": 0, 
  "timestamp": 1468595079.704978, 
  "trial": 2, 
  "y": 0.0022013734500780156, 
  "x": 0.0
 }, 
 {
  "rt": 487.62402990840167, 
  "participant": 8, 
  "stimulus": 1, 
  "timestamp": 1468595079.704981, 
  "trial": 17, 
  "y": 0.009628443371997942, 
  "x": 0.02857142857142857
 }, 
 {
  "rt": 415.9881475165701, 
  "participant": 8, 
  "stimulus": 2, 
  "timestamp": 1468595079.704983, 
  "trial": 7, 
  "y": 0.009803631258638236, 
  "x": 0.05714285714285714
 }, 
 {
  "rt": 587.5161332124353, 
  "participant": 8, 
  "stimulus": 3, 
  "timestamp": 1468595079.704985, 
  "trial": 13, 
  "y": 0.014778666617542645, 
  "x": 0.08571428571428572
 }, 
 {
  "rt": 910.1559558407122, 
  "participant": 8, 
  "stimulus": 4, 
  "timestamp": 1468595079.704987, 
  "trial": 4, 
  "y": 0.03341364474564089, 
  "x": 0.11428571428571428
 }, 
 {
  "rt": 668.7869143172222, 
  "participant": 8, 
  "stimulus": 5, 
  "timestamp": 1468595079.70499, 
  "trial": 14, 
  "y": 0.014034445587305239, 
  "x": 0.14285714285714285
 }, 
 {
  "rt": 741.066770366514, 
  "participant": 8, 
  "stimulus": 6, 
  "timestamp": 1468595079.704992, 
  "trial": 8, 
  "y": 0.03323916421673922, 
  "x": 0.17142857142857143
 }, 
 {
  "rt": 564.4654088971806, 
  "participant": 8, 
  "stimulus": 7, 
  "timestamp": 1468595079.704994, 
  "trial": 33, 
  "y": 0.035661803174215606, 
  "x": 0.19999999999999998
 }, 
 {
  "rt": 994.0116789401903, 
  "participant": 8, 
  "stimulus": 8, 
  "timestamp": 1468595079.704997, 
  "trial": 16, 
  "y": 0.09137307718028699, 
  "x": 0.22857142857142856
 }, 
 {
  "rt": 803.6959316818272, 
  "participant": 8, 
  "stimulus": 9, 
  "timestamp": 1468595079.704999, 
  "trial": 28, 
  "y": 0.16194855339661024, 
  "x": 0.2571428571428571
 }, 
 {
  "rt": 495.65937019412377, 
  "participant": 8, 
  "stimulus": 10, 
  "timestamp": 1468595079.705001, 
  "trial": 27, 
  "y": 0.043178159666753285, 
  "x": 0.2857142857142857
 }, 
 {
  "rt": 729.0742115568826, 
  "participant": 8, 
  "stimulus": 11, 
  "timestamp": 1468595079.705004, 
  "trial": 26, 
  "y": 0.21904635406939543, 
  "x": 0.3142857142857143
 }, 
 {
  "rt": 618.9947509111668, 
  "participant": 8, 
  "stimulus": 12, 
  "timestamp": 1468595079.705006, 
  "trial": 32, 
  "y": 0.6211317619701495, 
  "x": 0.34285714285714286
 }, 
 {
  "rt": 915.3885789547683, 
  "participant": 8, 
  "stimulus": 13, 
  "timestamp": 1468595079.705008, 
  "trial": 22, 
  "y": 0.05969976093655704, 
  "x": 0.37142857142857144
 }, 
 {
  "rt": 434.6849450782053, 
  "participant": 8, 
  "stimulus": 14, 
  "timestamp": 1468595079.70501, 
  "trial": 29, 
  "y": 0.13821779682290128, 
  "x": 0.39999999999999997
 }, 
 {
  "rt": 272.64780833076156, 
  "participant": 8, 
  "stimulus": 15, 
  "timestamp": 1468595079.705013, 
  "trial": 5, 
  "y": 0.16870076246763682, 
  "x": 0.42857142857142855
 }, 
 {
  "rt": 356.6706123992962, 
  "participant": 8, 
  "stimulus": 16, 
  "timestamp": 1468595079.705015, 
  "trial": 12, 
  "y": 0.330114077219275, 
  "x": 0.45714285714285713
 }, 
 {
  "rt": 526.3982262793351, 
  "participant": 8, 
  "stimulus": 17, 
  "timestamp": 1468595079.705017, 
  "trial": 25, 
  "y": 0.8145713637563184, 
  "x": 0.4857142857142857
 }, 
 {
  "rt": 877.466663979365, 
  "participant": 8, 
  "stimulus": 18, 
  "timestamp": 1468595079.70502, 
  "trial": 10, 
  "y": 0.5389732365355399, 
  "x": 0.5142857142857142
 }, 
 {
  "rt": 396.22606286344615, 
  "participant": 8, 
  "stimulus": 19, 
  "timestamp": 1468595079.705022, 
  "trial": 0, 
  "y": 0.43385934401051557, 
  "x": 0.5428571428571428
 }, 
 {
  "rt": 702.0395483222269, 
  "participant": 8, 
  "stimulus": 20, 
  "timestamp": 1468595079.705024, 
  "trial": 11, 
  "y": 0.7918460791980652, 
  "x": 0.5714285714285714
 }, 
 {
  "rt": 723.5106539815301, 
  "participant": 8, 
  "stimulus": 21, 
  "timestamp": 1468595079.705027, 
  "trial": 35, 
  "y": 0.5987346227170637, 
  "x": 0.6
 }, 
 {
  "rt": 512.3059085620079, 
  "participant": 8, 
  "stimulus": 22, 
  "timestamp": 1468595079.705029, 
  "trial": 23, 
  "y": 0.9175205985572212, 
  "x": 0.6285714285714286
 }, 
 {
  "rt": 238.63673416743876, 
  "participant": 8, 
  "stimulus": 23, 
  "timestamp": 1468595079.705031, 
  "trial": 24, 
  "y": 0.8672311163447086, 
  "x": 0.6571428571428571
 }, 
 {
  "rt": 784.2416291458075, 
  "participant": 8, 
  "stimulus": 24, 
  "timestamp": 1468595079.705033, 
  "trial": 9, 
  "y": 0.9625263078141847, 
  "x": 0.6857142857142857
 }, 
 {
  "rt": 431.023847926333, 
  "participant": 8, 
  "stimulus": 25, 
  "timestamp": 1468595079.705036, 
  "trial": 34, 
  "y": 0.8148009865225859, 
  "x": 0.7142857142857143
 }, 
 {
  "rt": 522.4006635646526, 
  "participant": 8, 
  "stimulus": 26, 
  "timestamp": 1468595079.705038, 
  "trial": 3, 
  "y": 0.9957620494905729, 
  "x": 0.7428571428571429
 }, 
 {
  "rt": 524.6517655872517, 
  "participant": 8, 
  "stimulus": 27, 
  "timestamp": 1468595079.70504, 
  "trial": 20, 
  "y": 0.971773742469982, 
  "x": 0.7714285714285714
 }, 
 {
  "rt": 719.7889231717115, 
  "participant": 8, 
  "stimulus": 28, 
  "timestamp": 1468595079.705043, 
  "trial": 18, 
  "y": 0.9747801396023469, 
  "x": 0.7999999999999999
 }, 
 {
  "rt": 258.09711228828525, 
  "participant": 8, 
  "stimulus": 29, 
  "timestamp": 1468595079.705045, 
  "trial": 1, 
  "y": 0.9621130720302117, 
  "x": 0.8285714285714285
 }, 
 {
  "rt": 626.4061675997091, 
  "participant": 8, 
  "stimulus": 30, 
  "timestamp": 1468595079.705047, 
  "trial": 6, 
  "y": 0.9451028048273141, 
  "x": 0.8571428571428571
 }, 
 {
  "rt": 195.40629508996264, 
  "participant": 8, 
  "stimulus": 31, 
  "timestamp": 1468595079.705049, 
  "trial": 21, 
  "y": 0.9520917726572803, 
  "x": 0.8857142857142857
 }, 
 {
  "rt": 962.6750307485805, 
  "participant": 8, 
  "stimulus": 32, 
  "timestamp": 1468595079.705052, 
  "trial": 30, 
  "y": 0.9821349041079404, 
  "x": 0.9142857142857143
 }, 
 {
  "rt": 665.5647942173138, 
  "participant": 8, 
  "stimulus": 33, 
  "timestamp": 1468595079.705054, 
  "trial": 31, 
  "y": 0.9742014957948737, 
  "x": 0.9428571428571428
 }, 
 {
  "rt": 505.6534619912269, 
  "participant": 8, 
  "stimulus": 34, 
  "timestamp": 1468595079.705056, 
  "trial": 15, 
  "y": 0.9932869181575466, 
  "x": 0.9714285714285714
 }, 
 {
  "rt": 318.03091411523087, 
  "participant": 8, 
  "stimulus": 35, 
  "timestamp": 1468595079.705058, 
  "trial": 19, 
  "y": 0.9848412504549009, 
  "x": 1.0
 }, 
 {
  "rt": 727.2895950847759, 
  "participant": 9, 
  "stimulus": 0, 
  "timestamp": 1468595079.705062, 
  "trial": 35, 
  "y": 0.012383649502036844, 
  "x": 0.0
 }, 
 {
  "rt": 489.5304776394599, 
  "participant": 9, 
  "stimulus": 1, 
  "timestamp": 1468595079.705064, 
  "trial": 18, 
  "y": 0.02279480469475773, 
  "x": 0.02857142857142857
 }, 
 {
  "rt": 411.1295314568912, 
  "participant": 9, 
  "stimulus": 2, 
  "timestamp": 1468595079.705067, 
  "trial": 8, 
  "y": 0.005856019518741638, 
  "x": 0.05714285714285714
 }, 
 {
  "rt": 598.5604562794375, 
  "participant": 9, 
  "stimulus": 3, 
  "timestamp": 1468595079.705069, 
  "trial": 0, 
  "y": 0.049728426694536074, 
  "x": 0.08571428571428572
 }, 
 {
  "rt": 910.9775365089171, 
  "participant": 9, 
  "stimulus": 4, 
  "timestamp": 1468595079.705071, 
  "trial": 22, 
  "y": 0.016381510899017824, 
  "x": 0.11428571428571428
 }, 
 {
  "rt": 650.3542804716257, 
  "participant": 9, 
  "stimulus": 5, 
  "timestamp": 1468595079.705074, 
  "trial": 33, 
  "y": 0.08195014029970062, 
  "x": 0.14285714285714285
 }, 
 {
  "rt": 739.7268681053081, 
  "participant": 9, 
  "stimulus": 6, 
  "timestamp": 1468595079.705076, 
  "trial": 23, 
  "y": 0.05480820588720237, 
  "x": 0.17142857142857143
 }, 
 {
  "rt": 543.7542687939999, 
  "participant": 9, 
  "stimulus": 7, 
  "timestamp": 1468595079.705078, 
  "trial": 25, 
  "y": 0.13265653834117147, 
  "x": 0.19999999999999998
 }, 
 {
  "rt": 988.5308380792408, 
  "participant": 9, 
  "stimulus": 8, 
  "timestamp": 1468595079.705081, 
  "trial": 28, 
  "y": 0.023862261451375228, 
  "x": 0.22857142857142856
 }, 
 {
  "rt": 805.184111952492, 
  "participant": 9, 
  "stimulus": 9, 
  "timestamp": 1468595079.705083, 
  "trial": 13, 
  "y": 0.07341582276071949, 
  "x": 0.2571428571428571
 }, 
 {
  "rt": 480.8124989917187, 
  "participant": 9, 
  "stimulus": 10, 
  "timestamp": 1468595079.705085, 
  "trial": 20, 
  "y": 0.33371550903902814, 
  "x": 0.2857142857142857
 }, 
 {
  "rt": 715.449494886564, 
  "participant": 9, 
  "stimulus": 11, 
  "timestamp": 1468595079.705088, 
  "trial": 21, 
  "y": 0.07761659610536877, 
  "x": 0.3142857142857143
 }, 
 {
  "rt": 636.2394775418189, 
  "participant": 9, 
  "stimulus": 12, 
  "timestamp": 1468595079.70509, 
  "trial": 4, 
  "y": 0.026374482060859374, 
  "x": 0.34285714285714286
 }, 
 {
  "rt": 897.8675040530362, 
  "participant": 9, 
  "stimulus": 13, 
  "timestamp": 1468595079.705092, 
  "trial": 2, 
  "y": 0.03811439611394224, 
  "x": 0.37142857142857144
 }, 
 {
  "rt": 443.64530647429353, 
  "participant": 9, 
  "stimulus": 14, 
  "timestamp": 1468595079.705094, 
  "trial": 27, 
  "y": 0.029129529204927476, 
  "x": 0.39999999999999997
 }, 
 {
  "rt": 288.1231094454249, 
  "participant": 9, 
  "stimulus": 15, 
  "timestamp": 1468595079.705097, 
  "trial": 16, 
  "y": 0.05580603302796044, 
  "x": 0.42857142857142855
 }, 
 {
  "rt": 362.40585269783514, 
  "participant": 9, 
  "stimulus": 16, 
  "timestamp": 1468595079.705099, 
  "trial": 6, 
  "y": 0.3014904327926252, 
  "x": 0.45714285714285713
 }, 
 {
  "rt": 494.6253012301256, 
  "participant": 9, 
  "stimulus": 17, 
  "timestamp": 1468595079.705103, 
  "trial": 31, 
  "y": 0.7568839319972926, 
  "x": 0.4857142857142857
 }, 
 {
  "rt": 862.5062451539143, 
  "participant": 9, 
  "stimulus": 18, 
  "timestamp": 1468595079.705106, 
  "trial": 32, 
  "y": 0.4257109767705861, 
  "x": 0.5142857142857142
 }, 
 {
  "rt": 424.81811735310976, 
  "participant": 9, 
  "stimulus": 19, 
  "timestamp": 1468595079.705108, 
  "trial": 26, 
  "y": 0.6796358412245559, 
  "x": 0.5428571428571428
 }, 
 {
  "rt": 707.1988602813832, 
  "participant": 9, 
  "stimulus": 20, 
  "timestamp": 1468595079.70511, 
  "trial": 17, 
  "y": 0.6466381414020652, 
  "x": 0.5714285714285714
 }, 
 {
  "rt": 689.830397411264, 
  "participant": 9, 
  "stimulus": 21, 
  "timestamp": 1468595079.705113, 
  "trial": 34, 
  "y": 0.7327360795232041, 
  "x": 0.6
 }, 
 {
  "rt": 519.722998770826, 
  "participant": 9, 
  "stimulus": 22, 
  "timestamp": 1468595079.705115, 
  "trial": 15, 
  "y": 0.7535275664170115, 
  "x": 0.6285714285714286
 }, 
 {
  "rt": 232.21266749765184, 
  "participant": 9, 
  "stimulus": 23, 
  "timestamp": 1468595079.705117, 
  "trial": 10, 
  "y": 0.8017468606302256, 
  "x": 0.6571428571428571
 }, 
 {
  "rt": 798.5662114733092, 
  "participant": 9, 
  "stimulus": 24, 
  "timestamp": 1468595079.70512, 
  "trial": 3, 
  "y": 0.9103819068389777, 
  "x": 0.6857142857142857
 }, 
 {
  "rt": 447.5254966676361, 
  "participant": 9, 
  "stimulus": 25, 
  "timestamp": 1468595079.705122, 
  "trial": 30, 
  "y": 0.7244960755019052, 
  "x": 0.7142857142857143
 }, 
 {
  "rt": 500.4642756520012, 
  "participant": 9, 
  "stimulus": 26, 
  "timestamp": 1468595079.705124, 
  "trial": 19, 
  "y": 0.9688923157532158, 
  "x": 0.7428571428571429
 }, 
 {
  "rt": 507.46344759042165, 
  "participant": 9, 
  "stimulus": 27, 
  "timestamp": 1468595079.705127, 
  "trial": 24, 
  "y": 0.9742768376869766, 
  "x": 0.7714285714285714
 }, 
 {
  "rt": 720.5256577574072, 
  "participant": 9, 
  "stimulus": 28, 
  "timestamp": 1468595079.705129, 
  "trial": 14, 
  "y": 0.9429423324204603, 
  "x": 0.7999999999999999
 }, 
 {
  "rt": 262.7765675735272, 
  "participant": 9, 
  "stimulus": 29, 
  "timestamp": 1468595079.705131, 
  "trial": 1, 
  "y": 0.9835542823289443, 
  "x": 0.8285714285714285
 }, 
 {
  "rt": 638.0112269568756, 
  "participant": 9, 
  "stimulus": 30, 
  "timestamp": 1468595079.705133, 
  "trial": 5, 
  "y": 0.9463476205235358, 
  "x": 0.8571428571428571
 }, 
 {
  "rt": 196.20802748955805, 
  "participant": 9, 
  "stimulus": 31, 
  "timestamp": 1468595079.705136, 
  "trial": 9, 
  "y": 0.9651058918332047, 
  "x": 0.8857142857142857
 }, 
 {
  "rt": 1020.1239210900917, 
  "participant": 9, 
  "stimulus": 32, 
  "timestamp": 1468595079.705138, 
  "trial": 7, 
  "y": 0.9866014675387503, 
  "x": 0.9142857142857143
 }, 
 {
  "rt": 707.4709925642765, 
  "participant": 9, 
  "stimulus": 33, 
  "timestamp": 1468595079.70514, 
  "trial": 11, 
  "y": 0.9857739237168059, 
  "x": 0.9428571428571428
 }, 
 {
  "rt": 516.2036805459336, 
  "participant": 9, 
  "stimulus": 34, 
  "timestamp": 1468595079.705143, 
  "trial": 12, 
  "y": 0.9861503338209847, 
  "x": 0.9714285714285714
 }, 
 {
  "rt": 325.1702934603126, 
  "participant": 9, 
  "stimulus": 35, 
  "timestamp": 1468595079.705145, 
  "trial": 29, 
  "y": 0.9869721437339962, 
  "x": 1.0
 }, 
 {
  "rt": 697.2809765680788, 
  "participant": 10, 
  "stimulus": 0, 
  "timestamp": 1468595079.705149, 
  "trial": 12, 
  "y": 0.0038436004753963668, 
  "x": 0.0
 }, 
 {
  "rt": 535.9818677378124, 
  "participant": 10, 
  "stimulus": 1, 
  "timestamp": 1468595079.705151, 
  "trial": 11, 
  "y": 0.022420213524350405, 
  "x": 0.02857142857142857
 }, 
 {
  "rt": 420.65252811790685, 
  "participant": 10, 
  "stimulus": 2, 
  "timestamp": 1468595079.705153, 
  "trial": 34, 
  "y": 0.0017060026207122774, 
  "x": 0.05714285714285714
 }, 
 {
  "rt": 605.6210441212497, 
  "participant": 10, 
  "stimulus": 3, 
  "timestamp": 1468595079.705156, 
  "trial": 4, 
  "y": 0.02208848456761887, 
  "x": 0.08571428571428572
 }, 
 {
  "rt": 927.2539538198381, 
  "participant": 10, 
  "stimulus": 4, 
  "timestamp": 1468595079.705158, 
  "trial": 10, 
  "y": 0.016405778599887896, 
  "x": 0.11428571428571428
 }, 
 {
  "rt": 656.2597454927928, 
  "participant": 10, 
  "stimulus": 5, 
  "timestamp": 1468595079.705161, 
  "trial": 20, 
  "y": 0.05501230226210998, 
  "x": 0.14285714285714285
 }, 
 {
  "rt": 718.5246127715503, 
  "participant": 10, 
  "stimulus": 6, 
  "timestamp": 1468595079.705163, 
  "trial": 6, 
  "y": 0.058931472675887026, 
  "x": 0.17142857142857143
 }, 
 {
  "rt": 549.7221834037657, 
  "participant": 10, 
  "stimulus": 7, 
  "timestamp": 1468595079.705165, 
  "trial": 27, 
  "y": 0.0030714342978608805, 
  "x": 0.19999999999999998
 }, 
 {
  "rt": 971.9026937846356, 
  "participant": 10, 
  "stimulus": 8, 
  "timestamp": 1468595079.705167, 
  "trial": 17, 
  "y": 0.1062492576352236, 
  "x": 0.22857142857142856
 }, 
 {
  "rt": 795.0165572120948, 
  "participant": 10, 
  "stimulus": 9, 
  "timestamp": 1468595079.70517, 
  "trial": 26, 
  "y": 0.10867985860454474, 
  "x": 0.2571428571428571
 }, 
 {
  "rt": 492.48550371949653, 
  "participant": 10, 
  "stimulus": 10, 
  "timestamp": 1468595079.705172, 
  "trial": 16, 
  "y": 0.10707296936262072, 
  "x": 0.2857142857142857
 }, 
 {
  "rt": 731.053189729766, 
  "participant": 10, 
  "stimulus": 11, 
  "timestamp": 1468595079.705175, 
  "trial": 2, 
  "y": 0.08900728555019785, 
  "x": 0.3142857142857143
 }, 
 {
  "rt": 654.1899541658804, 
  "participant": 10, 
  "stimulus": 12, 
  "timestamp": 1468595079.705177, 
  "trial": 31, 
  "y": 0.3278010795936561, 
  "x": 0.34285714285714286
 }, 
 {
  "rt": 907.1815988283613, 
  "participant": 10, 
  "stimulus": 13, 
  "timestamp": 1468595079.705179, 
  "trial": 7, 
  "y": 0.1546294299890514, 
  "x": 0.37142857142857144
 }, 
 {
  "rt": 434.84043347366423, 
  "participant": 10, 
  "stimulus": 14, 
  "timestamp": 1468595079.705182, 
  "trial": 22, 
  "y": 0.6973515221504621, 
  "x": 0.39999999999999997
 }, 
 {
  "rt": 312.81306739620766, 
  "participant": 10, 
  "stimulus": 15, 
  "timestamp": 1468595079.705184, 
  "trial": 13, 
  "y": 0.46259430395200307, 
  "x": 0.42857142857142855
 }, 
 {
  "rt": 334.0819469829701, 
  "participant": 10, 
  "stimulus": 16, 
  "timestamp": 1468595079.705186, 
  "trial": 18, 
  "y": 0.8467398420218968, 
  "x": 0.45714285714285713
 }, 
 {
  "rt": 520.6425078011846, 
  "participant": 10, 
  "stimulus": 17, 
  "timestamp": 1468595079.705189, 
  "trial": 30, 
  "y": 0.28325123133033964, 
  "x": 0.4857142857142857
 }, 
 {
  "rt": 866.6858630968267, 
  "participant": 10, 
  "stimulus": 18, 
  "timestamp": 1468595079.705191, 
  "trial": 25, 
  "y": 0.1661630288113247, 
  "x": 0.5142857142857142
 }, 
 {
  "rt": 393.3994248633309, 
  "participant": 10, 
  "stimulus": 19, 
  "timestamp": 1468595079.705193, 
  "trial": 3, 
  "y": 0.758296192875315, 
  "x": 0.5428571428571428
 }, 
 {
  "rt": 725.5618572513189, 
  "participant": 10, 
  "stimulus": 20, 
  "timestamp": 1468595079.705195, 
  "trial": 29, 
  "y": 0.8273540535190047, 
  "x": 0.5714285714285714
 }, 
 {
  "rt": 716.3787825655343, 
  "participant": 10, 
  "stimulus": 21, 
  "timestamp": 1468595079.705198, 
  "trial": 15, 
  "y": 0.7379537420124114, 
  "x": 0.6
 }, 
 {
  "rt": 534.5211074467959, 
  "participant": 10, 
  "stimulus": 22, 
  "timestamp": 1468595079.7052, 
  "trial": 8, 
  "y": 0.4370658077615653, 
  "x": 0.6285714285714286
 }, 
 {
  "rt": 232.9019857270677, 
  "participant": 10, 
  "stimulus": 23, 
  "timestamp": 1468595079.705202, 
  "trial": 0, 
  "y": 0.7546435350610762, 
  "x": 0.6571428571428571
 }, 
 {
  "rt": 819.0893258835836, 
  "participant": 10, 
  "stimulus": 24, 
  "timestamp": 1468595079.705205, 
  "trial": 19, 
  "y": 0.9223797301468644, 
  "x": 0.6857142857142857
 }, 
 {
  "rt": 415.46477266957095, 
  "participant": 10, 
  "stimulus": 25, 
  "timestamp": 1468595079.705207, 
  "trial": 33, 
  "y": 0.8763901156712001, 
  "x": 0.7142857142857143
 }, 
 {
  "rt": 519.8074285306499, 
  "participant": 10, 
  "stimulus": 26, 
  "timestamp": 1468595079.705209, 
  "trial": 14, 
  "y": 0.9099140756736571, 
  "x": 0.7428571428571429
 }, 
 {
  "rt": 509.2851323928295, 
  "participant": 10, 
  "stimulus": 27, 
  "timestamp": 1468595079.705211, 
  "trial": 35, 
  "y": 0.9268192900935126, 
  "x": 0.7714285714285714
 }, 
 {
  "rt": 750.7615448504331, 
  "participant": 10, 
  "stimulus": 28, 
  "timestamp": 1468595079.705214, 
  "trial": 1, 
  "y": 0.887562890666008, 
  "x": 0.7999999999999999
 }, 
 {
  "rt": 245.49123347622546, 
  "participant": 10, 
  "stimulus": 29, 
  "timestamp": 1468595079.705216, 
  "trial": 23, 
  "y": 0.9400653143627419, 
  "x": 0.8285714285714285
 }, 
 {
  "rt": 592.5868348834409, 
  "participant": 10, 
  "stimulus": 30, 
  "timestamp": 1468595079.705218, 
  "trial": 5, 
  "y": 0.8951887194566123, 
  "x": 0.8571428571428571
 }, 
 {
  "rt": 214.1193312124013, 
  "participant": 10, 
  "stimulus": 31, 
  "timestamp": 1468595079.705221, 
  "trial": 32, 
  "y": 0.9964067655141113, 
  "x": 0.8857142857142857
 }, 
 {
  "rt": 991.3337910517137, 
  "participant": 10, 
  "stimulus": 32, 
  "timestamp": 1468595079.705223, 
  "trial": 28, 
  "y": 0.9750954359582755, 
  "x": 0.9142857142857143
 }, 
 {
  "rt": 681.4242378809994, 
  "participant": 10, 
  "stimulus": 33, 
  "timestamp": 1468595079.705225, 
  "trial": 9, 
  "y": 0.9926536747208817, 
  "x": 0.9428571428571428
 }, 
 {
  "rt": 493.74246545022436, 
  "participant": 10, 
  "stimulus": 34, 
  "timestamp": 1468595079.705228, 
  "trial": 21, 
  "y": 0.9756933831697169, 
  "x": 0.9714285714285714
 }, 
 {
  "rt": 316.716289124481, 
  "participant": 10, 
  "stimulus": 35, 
  "timestamp": 1468595079.70523, 
  "trial": 24, 
  "y": 0.9969650726183152, 
  "x": 1.0
 }, 
 {
  "rt": 691.5262939139534, 
  "participant": 11, 
  "stimulus": 0, 
  "timestamp": 1468595079.705234, 
  "trial": 15, 
  "y": 0.0010341291144025048, 
  "x": 0.0
 }, 
 {
  "rt": 505.23764906729537, 
  "participant": 11, 
  "stimulus": 1, 
  "timestamp": 1468595079.705236, 
  "trial": 24, 
  "y": 0.022017146613769842, 
  "x": 0.02857142857142857
 }, 
 {
  "rt": 433.04665306915086, 
  "participant": 11, 
  "stimulus": 2, 
  "timestamp": 1468595079.705238, 
  "trial": 19, 
  "y": 0.011385775755632477, 
  "x": 0.05714285714285714
 }, 
 {
  "rt": 597.1301453574081, 
  "participant": 11, 
  "stimulus": 3, 
  "timestamp": 1468595079.705241, 
  "trial": 14, 
  "y": 0.11585802977360798, 
  "x": 0.08571428571428572
 }, 
 {
  "rt": 880.1974096045554, 
  "participant": 11, 
  "stimulus": 4, 
  "timestamp": 1468595079.705243, 
  "trial": 0, 
  "y": 0.005688087200654837, 
  "x": 0.11428571428571428
 }, 
 {
  "rt": 650.3885050012592, 
  "participant": 11, 
  "stimulus": 5, 
  "timestamp": 1468595079.705245, 
  "trial": 33, 
  "y": 0.029453456409312326, 
  "x": 0.14285714285714285
 }, 
 {
  "rt": 727.6999023649971, 
  "participant": 11, 
  "stimulus": 6, 
  "timestamp": 1468595079.705248, 
  "trial": 28, 
  "y": 0.051247434632790266, 
  "x": 0.17142857142857143
 }, 
 {
  "rt": 551.9585598568932, 
  "participant": 11, 
  "stimulus": 7, 
  "timestamp": 1468595079.70525, 
  "trial": 12, 
  "y": 0.1459032424401056, 
  "x": 0.19999999999999998
 }, 
 {
  "rt": 996.225365850135, 
  "participant": 11, 
  "stimulus": 8, 
  "timestamp": 1468595079.705252, 
  "trial": 29, 
  "y": 0.041600892463347104, 
  "x": 0.22857142857142856
 }, 
 {
  "rt": 795.986371169759, 
  "participant": 11, 
  "stimulus": 9, 
  "timestamp": 1468595079.705255, 
  "trial": 4, 
  "y": 0.08769519655006495, 
  "x": 0.2571428571428571
 }, 
 {
  "rt": 513.5218686301237, 
  "participant": 11, 
  "stimulus": 10, 
  "timestamp": 1468595079.705257, 
  "trial": 26, 
  "y": 0.013582146586265683, 
  "x": 0.2857142857142857
 }, 
 {
  "rt": 728.2323542462448, 
  "participant": 11, 
  "stimulus": 11, 
  "timestamp": 1468595079.705259, 
  "trial": 31, 
  "y": 0.06372622702263304, 
  "x": 0.3142857142857143
 }, 
 {
  "rt": 618.6516384068713, 
  "participant": 11, 
  "stimulus": 12, 
  "timestamp": 1468595079.705262, 
  "trial": 7, 
  "y": 0.2460460421091587, 
  "x": 0.34285714285714286
 }, 
 {
  "rt": 923.3451722682237, 
  "participant": 11, 
  "stimulus": 13, 
  "timestamp": 1468595079.705264, 
  "trial": 30, 
  "y": 0.45473924589553893, 
  "x": 0.37142857142857144
 }, 
 {
  "rt": 418.760120410804, 
  "participant": 11, 
  "stimulus": 14, 
  "timestamp": 1468595079.705266, 
  "trial": 17, 
  "y": 0.21725481711319705, 
  "x": 0.39999999999999997
 }, 
 {
  "rt": 279.51219536377914, 
  "participant": 11, 
  "stimulus": 15, 
  "timestamp": 1468595079.705269, 
  "trial": 34, 
  "y": 0.7928301146970592, 
  "x": 0.42857142857142855
 }, 
 {
  "rt": 356.98585318766146, 
  "participant": 11, 
  "stimulus": 16, 
  "timestamp": 1468595079.705271, 
  "trial": 3, 
  "y": 0.791118026803792, 
  "x": 0.45714285714285713
 }, 
 {
  "rt": 511.2672089596988, 
  "participant": 11, 
  "stimulus": 17, 
  "timestamp": 1468595079.705273, 
  "trial": 1, 
  "y": 0.4492974627503459, 
  "x": 0.4857142857142857
 }, 
 {
  "rt": 861.1118232471387, 
  "participant": 11, 
  "stimulus": 18, 
  "timestamp": 1468595079.705275, 
  "trial": 20, 
  "y": 0.09358341256366191, 
  "x": 0.5142857142857142
 }, 
 {
  "rt": 404.6105977635429, 
  "participant": 11, 
  "stimulus": 19, 
  "timestamp": 1468595079.705278, 
  "trial": 6, 
  "y": 0.20603473420236215, 
  "x": 0.5428571428571428
 }, 
 {
  "rt": 717.4484740301274, 
  "participant": 11, 
  "stimulus": 20, 
  "timestamp": 1468595079.70528, 
  "trial": 25, 
  "y": 0.4841120725295173, 
  "x": 0.5714285714285714
 }, 
 {
  "rt": 701.3400656098339, 
  "participant": 11, 
  "stimulus": 21, 
  "timestamp": 1468595079.705283, 
  "trial": 11, 
  "y": 0.8924333433164826, 
  "x": 0.6
 }, 
 {
  "rt": 535.5129385412689, 
  "participant": 11, 
  "stimulus": 22, 
  "timestamp": 1468595079.705285, 
  "trial": 10, 
  "y": 0.8314567057258693, 
  "x": 0.6285714285714286
 }, 
 {
  "rt": 254.75687315793712, 
  "participant": 11, 
  "stimulus": 23, 
  "timestamp": 1468595079.705287, 
  "trial": 16, 
  "y": 0.3721932366238159, 
  "x": 0.6571428571428571
 }, 
 {
  "rt": 821.3267760658047, 
  "participant": 11, 
  "stimulus": 24, 
  "timestamp": 1468595079.705289, 
  "trial": 5, 
  "y": 0.8359471866022695, 
  "x": 0.6857142857142857
 }, 
 {
  "rt": 427.5036272338815, 
  "participant": 11, 
  "stimulus": 25, 
  "timestamp": 1468595079.705292, 
  "trial": 8, 
  "y": 0.9771618188052535, 
  "x": 0.7142857142857143
 }, 
 {
  "rt": 508.7765534135886, 
  "participant": 11, 
  "stimulus": 26, 
  "timestamp": 1468595079.705294, 
  "trial": 21, 
  "y": 0.8863276740054127, 
  "x": 0.7428571428571429
 }, 
 {
  "rt": 488.6612598391879, 
  "participant": 11, 
  "stimulus": 27, 
  "timestamp": 1468595079.705296, 
  "trial": 2, 
  "y": 0.8769992945230297, 
  "x": 0.7714285714285714
 }, 
 {
  "rt": 722.3541762100731, 
  "participant": 11, 
  "stimulus": 28, 
  "timestamp": 1468595079.705299, 
  "trial": 27, 
  "y": 0.9936606789261649, 
  "x": 0.7999999999999999
 }, 
 {
  "rt": 256.1055698251834, 
  "participant": 11, 
  "stimulus": 29, 
  "timestamp": 1468595079.705301, 
  "trial": 9, 
  "y": 0.9657468703099555, 
  "x": 0.8285714285714285
 }, 
 {
  "rt": 639.6988877170573, 
  "participant": 11, 
  "stimulus": 30, 
  "timestamp": 1468595079.705303, 
  "trial": 35, 
  "y": 0.9565728227954667, 
  "x": 0.8571428571428571
 }, 
 {
  "rt": 210.800276510483, 
  "participant": 11, 
  "stimulus": 31, 
  "timestamp": 1468595079.705306, 
  "trial": 13, 
  "y": 0.9853319945940713, 
  "x": 0.8857142857142857
 }, 
 {
  "rt": 994.686252726182, 
  "participant": 11, 
  "stimulus": 32, 
  "timestamp": 1468595079.705308, 
  "trial": 23, 
  "y": 0.9846326253463467, 
  "x": 0.9142857142857143
 }, 
 {
  "rt": 661.8314936624585, 
  "participant": 11, 
  "stimulus": 33, 
  "timestamp": 1468595079.70531, 
  "trial": 22, 
  "y": 0.9820037045131743, 
  "x": 0.9428571428571428
 }, 
 {
  "rt": 498.0054065999851, 
  "participant": 11, 
  "stimulus": 34, 
  "timestamp": 1468595079.705313, 
  "trial": 18, 
  "y": 0.9973293043865534, 
  "x": 0.9714285714285714
 }, 
 {
  "rt": 322.50360851226094, 
  "participant": 11, 
  "stimulus": 35, 
  "timestamp": 1468595079.705315, 
  "trial": 32, 
  "y": 0.997796938498946, 
  "x": 1.0
 }, 
 {
  "rt": 723.6603020572495, 
  "participant": 12, 
  "stimulus": 0, 
  "timestamp": 1468595079.705319, 
  "trial": 9, 
  "y": 0.01538074771084928, 
  "x": 0.0
 }, 
 {
  "rt": 465.2402751137922, 
  "participant": 12, 
  "stimulus": 1, 
  "timestamp": 1468595079.705321, 
  "trial": 18, 
  "y": 0.008024707886932665, 
  "x": 0.02857142857142857
 }, 
 {
  "rt": 411.52708373292523, 
  "participant": 12, 
  "stimulus": 2, 
  "timestamp": 1468595079.705324, 
  "trial": 8, 
  "y": 0.03620536057679653, 
  "x": 0.05714285714285714
 }, 
 {
  "rt": 603.8019735110867, 
  "participant": 12, 
  "stimulus": 3, 
  "timestamp": 1468595079.705326, 
  "trial": 28, 
  "y": 0.014882722487417023, 
  "x": 0.08571428571428572
 }, 
 {
  "rt": 878.6803119553728, 
  "participant": 12, 
  "stimulus": 4, 
  "timestamp": 1468595079.705328, 
  "trial": 27, 
  "y": 0.03259369888351395, 
  "x": 0.11428571428571428
 }, 
 {
  "rt": 658.8217435487742, 
  "participant": 12, 
  "stimulus": 5, 
  "timestamp": 1468595079.705331, 
  "trial": 0, 
  "y": 0.07325433729872625, 
  "x": 0.14285714285714285
 }, 
 {
  "rt": 748.2039868645473, 
  "participant": 12, 
  "stimulus": 6, 
  "timestamp": 1468595079.705333, 
  "trial": 32, 
  "y": 0.07749567574718025, 
  "x": 0.17142857142857143
 }, 
 {
  "rt": 524.5653213680799, 
  "participant": 12, 
  "stimulus": 7, 
  "timestamp": 1468595079.705335, 
  "trial": 30, 
  "y": 0.22965764785148088, 
  "x": 0.19999999999999998
 }, 
 {
  "rt": 954.7273522990833, 
  "participant": 12, 
  "stimulus": 8, 
  "timestamp": 1468595079.705338, 
  "trial": 24, 
  "y": 0.09423385025925884, 
  "x": 0.22857142857142856
 }, 
 {
  "rt": 808.0025443088991, 
  "participant": 12, 
  "stimulus": 9, 
  "timestamp": 1468595079.70534, 
  "trial": 13, 
  "y": 0.016101165597983975, 
  "x": 0.2571428571428571
 }, 
 {
  "rt": 500.59659705290073, 
  "participant": 12, 
  "stimulus": 10, 
  "timestamp": 1468595079.705342, 
  "trial": 11, 
  "y": 0.035467482756687804, 
  "x": 0.2857142857142857
 }, 
 {
  "rt": 704.1317260253658, 
  "participant": 12, 
  "stimulus": 11, 
  "timestamp": 1468595079.705345, 
  "trial": 25, 
  "y": 0.37588860392243895, 
  "x": 0.3142857142857143
 }, 
 {
  "rt": 619.5880648925327, 
  "participant": 12, 
  "stimulus": 12, 
  "timestamp": 1468595079.705347, 
  "trial": 31, 
  "y": 0.12980186650363287, 
  "x": 0.34285714285714286
 }, 
 {
  "rt": 916.9297732594537, 
  "participant": 12, 
  "stimulus": 13, 
  "timestamp": 1468595079.705349, 
  "trial": 34, 
  "y": 0.28922003572976035, 
  "x": 0.37142857142857144
 }, 
 {
  "rt": 416.4739810308401, 
  "participant": 12, 
  "stimulus": 14, 
  "timestamp": 1468595079.705352, 
  "trial": 26, 
  "y": 0.13570207683330543, 
  "x": 0.39999999999999997
 }, 
 {
  "rt": 278.7974774848681, 
  "participant": 12, 
  "stimulus": 15, 
  "timestamp": 1468595079.705354, 
  "trial": 4, 
  "y": 0.5711625027128691, 
  "x": 0.42857142857142855
 }, 
 {
  "rt": 376.43054209777193, 
  "participant": 12, 
  "stimulus": 16, 
  "timestamp": 1468595079.705356, 
  "trial": 23, 
  "y": 0.30716566732490447, 
  "x": 0.45714285714285713
 }, 
 {
  "rt": 514.0107241361088, 
  "participant": 12, 
  "stimulus": 17, 
  "timestamp": 1468595079.705359, 
  "trial": 10, 
  "y": 0.788390527572805, 
  "x": 0.4857142857142857
 }, 
 {
  "rt": 856.5258133512202, 
  "participant": 12, 
  "stimulus": 18, 
  "timestamp": 1468595079.705361, 
  "trial": 19, 
  "y": 0.40386731362450246, 
  "x": 0.5142857142857142
 }, 
 {
  "rt": 420.39632141752844, 
  "participant": 12, 
  "stimulus": 19, 
  "timestamp": 1468595079.705363, 
  "trial": 12, 
  "y": 0.8244372965738368, 
  "x": 0.5428571428571428
 }, 
 {
  "rt": 680.4481952010509, 
  "participant": 12, 
  "stimulus": 20, 
  "timestamp": 1468595079.705365, 
  "trial": 17, 
  "y": 0.8003817196946352, 
  "x": 0.5714285714285714
 }, 
 {
  "rt": 709.7399350567229, 
  "participant": 12, 
  "stimulus": 21, 
  "timestamp": 1468595079.705368, 
  "trial": 29, 
  "y": 0.5689597191759641, 
  "x": 0.6
 }, 
 {
  "rt": 540.860129014907, 
  "participant": 12, 
  "stimulus": 22, 
  "timestamp": 1468595079.70537, 
  "trial": 22, 
  "y": 0.9156539568129192, 
  "x": 0.6285714285714286
 }, 
 {
  "rt": 246.70921014997913, 
  "participant": 12, 
  "stimulus": 23, 
  "timestamp": 1468595079.705372, 
  "trial": 7, 
  "y": 0.6614570489499908, 
  "x": 0.6571428571428571
 }, 
 {
  "rt": 809.493875118129, 
  "participant": 12, 
  "stimulus": 24, 
  "timestamp": 1468595079.705375, 
  "trial": 20, 
  "y": 0.7378213669716482, 
  "x": 0.6857142857142857
 }, 
 {
  "rt": 465.42955966337115, 
  "participant": 12, 
  "stimulus": 25, 
  "timestamp": 1468595079.705377, 
  "trial": 6, 
  "y": 0.9460668764890326, 
  "x": 0.7142857142857143
 }, 
 {
  "rt": 529.4392170152009, 
  "participant": 12, 
  "stimulus": 26, 
  "timestamp": 1468595079.705379, 
  "trial": 33, 
  "y": 0.8585415966307387, 
  "x": 0.7428571428571429
 }, 
 {
  "rt": 496.3287238702719, 
  "participant": 12, 
  "stimulus": 27, 
  "timestamp": 1468595079.705382, 
  "trial": 3, 
  "y": 0.8928742759784815, 
  "x": 0.7714285714285714
 }, 
 {
  "rt": 714.8248845582594, 
  "participant": 12, 
  "stimulus": 28, 
  "timestamp": 1468595079.705384, 
  "trial": 2, 
  "y": 0.9343859233344728, 
  "x": 0.7999999999999999
 }, 
 {
  "rt": 272.3631099384749, 
  "participant": 12, 
  "stimulus": 29, 
  "timestamp": 1468595079.705387, 
  "trial": 16, 
  "y": 0.9076727936247843, 
  "x": 0.8285714285714285
 }, 
 {
  "rt": 624.7104573734125, 
  "participant": 12, 
  "stimulus": 30, 
  "timestamp": 1468595079.705389, 
  "trial": 14, 
  "y": 0.9902087144306341, 
  "x": 0.8571428571428571
 }, 
 {
  "rt": 191.20678203149453, 
  "participant": 12, 
  "stimulus": 31, 
  "timestamp": 1468595079.705391, 
  "trial": 1, 
  "y": 0.9886335483403289, 
  "x": 0.8857142857142857
 }, 
 {
  "rt": 979.6480596444344, 
  "participant": 12, 
  "stimulus": 32, 
  "timestamp": 1468595079.705393, 
  "trial": 5, 
  "y": 0.9832675028444322, 
  "x": 0.9142857142857143
 }, 
 {
  "rt": 652.6238371248496, 
  "participant": 12, 
  "stimulus": 33, 
  "timestamp": 1468595079.705396, 
  "trial": 21, 
  "y": 0.9868770047361676, 
  "x": 0.9428571428571428
 }, 
 {
  "rt": 488.19148301698596, 
  "participant": 12, 
  "stimulus": 34, 
  "timestamp": 1468595079.705398, 
  "trial": 35, 
  "y": 0.9943162338266804, 
  "x": 0.9714285714285714
 }, 
 {
  "rt": 324.75876719670384, 
  "participant": 12, 
  "stimulus": 35, 
  "timestamp": 1468595079.7054, 
  "trial": 15, 
  "y": 0.9988482669802918, 
  "x": 1.0
 }, 
 {
  "rt": 706.9221662257743, 
  "participant": 13, 
  "stimulus": 0, 
  "timestamp": 1468595079.705404, 
  "trial": 32, 
  "y": 0.015843428431897934, 
  "x": 0.0
 }, 
 {
  "rt": 495.0850790444251, 
  "participant": 13, 
  "stimulus": 1, 
  "timestamp": 1468595079.705407, 
  "trial": 12, 
  "y": 0.00536359468252868, 
  "x": 0.02857142857142857
 }, 
 {
  "rt": 420.01641493834717, 
  "participant": 13, 
  "stimulus": 2, 
  "timestamp": 1468595079.705409, 
  "trial": 22, 
  "y": 0.02530426928424414, 
  "x": 0.05714285714285714
 }, 
 {
  "rt": 580.8934960797196, 
  "participant": 13, 
  "stimulus": 3, 
  "timestamp": 1468595079.705411, 
  "trial": 25, 
  "y": 0.013903298434655473, 
  "x": 0.08571428571428572
 }, 
 {
  "rt": 911.1965074932017, 
  "participant": 13, 
  "stimulus": 4, 
  "timestamp": 1468595079.705413, 
  "trial": 24, 
  "y": 0.017020980591261118, 
  "x": 0.11428571428571428
 }, 
 {
  "rt": 652.1795386082813, 
  "participant": 13, 
  "stimulus": 5, 
  "timestamp": 1468595079.705416, 
  "trial": 7, 
  "y": 0.15381893517239684, 
  "x": 0.14285714285714285
 }, 
 {
  "rt": 729.9030013944434, 
  "participant": 13, 
  "stimulus": 6, 
  "timestamp": 1468595079.705418, 
  "trial": 14, 
  "y": 0.0240177283419234, 
  "x": 0.17142857142857143
 }, 
 {
  "rt": 557.7759825351052, 
  "participant": 13, 
  "stimulus": 7, 
  "timestamp": 1468595079.705421, 
  "trial": 16, 
  "y": 0.029910320996895588, 
  "x": 0.19999999999999998
 }, 
 {
  "rt": 948.2058165964885, 
  "participant": 13, 
  "stimulus": 8, 
  "timestamp": 1468595079.705423, 
  "trial": 6, 
  "y": 0.009318503850251677, 
  "x": 0.22857142857142856
 }, 
 {
  "rt": 820.073981861513, 
  "participant": 13, 
  "stimulus": 9, 
  "timestamp": 1468595079.705425, 
  "trial": 2, 
  "y": 0.021229601697632626, 
  "x": 0.2571428571428571
 }, 
 {
  "rt": 479.78768464291124, 
  "participant": 13, 
  "stimulus": 10, 
  "timestamp": 1468595079.705428, 
  "trial": 26, 
  "y": 0.1555479115319423, 
  "x": 0.2857142857142857
 }, 
 {
  "rt": 703.278155766075, 
  "participant": 13, 
  "stimulus": 11, 
  "timestamp": 1468595079.70543, 
  "trial": 20, 
  "y": 0.07228796252403952, 
  "x": 0.3142857142857143
 }, 
 {
  "rt": 635.6131524519932, 
  "participant": 13, 
  "stimulus": 12, 
  "timestamp": 1468595079.705432, 
  "trial": 27, 
  "y": 0.25807177368479883, 
  "x": 0.34285714285714286
 }, 
 {
  "rt": 889.9204274255341, 
  "participant": 13, 
  "stimulus": 13, 
  "timestamp": 1468595079.705435, 
  "trial": 0, 
  "y": 0.08312807242804209, 
  "x": 0.37142857142857144
 }, 
 {
  "rt": 420.948096386162, 
  "participant": 13, 
  "stimulus": 14, 
  "timestamp": 1468595079.705437, 
  "trial": 10, 
  "y": 0.1458771973999312, 
  "x": 0.39999999999999997
 }, 
 {
  "rt": 293.82176987361464, 
  "participant": 13, 
  "stimulus": 15, 
  "timestamp": 1468595079.705439, 
  "trial": 9, 
  "y": 0.49007255299840025, 
  "x": 0.42857142857142855
 }, 
 {
  "rt": 335.0426065527954, 
  "participant": 13, 
  "stimulus": 16, 
  "timestamp": 1468595079.705442, 
  "trial": 21, 
  "y": 0.737365613280541, 
  "x": 0.45714285714285713
 }, 
 {
  "rt": 521.1591682610115, 
  "participant": 13, 
  "stimulus": 17, 
  "timestamp": 1468595079.705444, 
  "trial": 1, 
  "y": 0.6105478494449913, 
  "x": 0.4857142857142857
 }, 
 {
  "rt": 885.0344706617182, 
  "participant": 13, 
  "stimulus": 18, 
  "timestamp": 1468595079.705446, 
  "trial": 11, 
  "y": 0.7926030574859446, 
  "x": 0.5142857142857142
 }, 
 {
  "rt": 421.43353701285764, 
  "participant": 13, 
  "stimulus": 19, 
  "timestamp": 1468595079.705449, 
  "trial": 13, 
  "y": 0.894085154983552, 
  "x": 0.5428571428571428
 }, 
 {
  "rt": 706.5940224282565, 
  "participant": 13, 
  "stimulus": 20, 
  "timestamp": 1468595079.705451, 
  "trial": 33, 
  "y": 0.8525037514073831, 
  "x": 0.5714285714285714
 }, 
 {
  "rt": 705.8253242233192, 
  "participant": 13, 
  "stimulus": 21, 
  "timestamp": 1468595079.705453, 
  "trial": 18, 
  "y": 0.5203786950408191, 
  "x": 0.6
 }, 
 {
  "rt": 541.7069408384958, 
  "participant": 13, 
  "stimulus": 22, 
  "timestamp": 1468595079.705456, 
  "trial": 30, 
  "y": 0.7650142475031068, 
  "x": 0.6285714285714286
 }, 
 {
  "rt": 251.9951003776897, 
  "participant": 13, 
  "stimulus": 23, 
  "timestamp": 1468595079.705458, 
  "trial": 28, 
  "y": 0.9003952735638726, 
  "x": 0.6571428571428571
 }, 
 {
  "rt": 802.5031220979516, 
  "participant": 13, 
  "stimulus": 24, 
  "timestamp": 1468595079.70546, 
  "trial": 4, 
  "y": 0.8088099415819338, 
  "x": 0.6857142857142857
 }, 
 {
  "rt": 426.1633644860119, 
  "participant": 13, 
  "stimulus": 25, 
  "timestamp": 1468595079.705463, 
  "trial": 34, 
  "y": 0.9305263713579691, 
  "x": 0.7142857142857143
 }, 
 {
  "rt": 522.66891823946, 
  "participant": 13, 
  "stimulus": 26, 
  "timestamp": 1468595079.705465, 
  "trial": 8, 
  "y": 0.7004444410183542, 
  "x": 0.7428571428571429
 }, 
 {
  "rt": 494.1890238892112, 
  "participant": 13, 
  "stimulus": 27, 
  "timestamp": 1468595079.705467, 
  "trial": 35, 
  "y": 0.8682596350743406, 
  "x": 0.7714285714285714
 }, 
 {
  "rt": 711.1372912981147, 
  "participant": 13, 
  "stimulus": 28, 
  "timestamp": 1468595079.705469, 
  "trial": 15, 
  "y": 0.9714984096844949, 
  "x": 0.7999999999999999
 }, 
 {
  "rt": 268.50271060872797, 
  "participant": 13, 
  "stimulus": 29, 
  "timestamp": 1468595079.705472, 
  "trial": 31, 
  "y": 0.7405113071922097, 
  "x": 0.8285714285714285
 }, 
 {
  "rt": 627.4713929247212, 
  "participant": 13, 
  "stimulus": 30, 
  "timestamp": 1468595079.705474, 
  "trial": 19, 
  "y": 0.9215587121402605, 
  "x": 0.8571428571428571
 }, 
 {
  "rt": 227.8081190617336, 
  "participant": 13, 
  "stimulus": 31, 
  "timestamp": 1468595079.705476, 
  "trial": 29, 
  "y": 0.978946796020633, 
  "x": 0.8857142857142857
 }, 
 {
  "rt": 985.9172542285826, 
  "participant": 13, 
  "stimulus": 32, 
  "timestamp": 1468595079.705479, 
  "trial": 3, 
  "y": 0.9185990405956413, 
  "x": 0.9142857142857143
 }, 
 {
  "rt": 679.3586542519014, 
  "participant": 13, 
  "stimulus": 33, 
  "timestamp": 1468595079.705481, 
  "trial": 5, 
  "y": 0.9888564952384694, 
  "x": 0.9428571428571428
 }, 
 {
  "rt": 517.856543143572, 
  "participant": 13, 
  "stimulus": 34, 
  "timestamp": 1468595079.705483, 
  "trial": 17, 
  "y": 0.980444284495729, 
  "x": 0.9714285714285714
 }, 
 {
  "rt": 311.6998002321771, 
  "participant": 13, 
  "stimulus": 35, 
  "timestamp": 1468595079.705486, 
  "trial": 23, 
  "y": 0.9910614699111812, 
  "x": 1.0
 }, 
 {
  "rt": 709.549688840632, 
  "participant": 14, 
  "stimulus": 0, 
  "timestamp": 1468595079.705489, 
  "trial": 11, 
  "y": 0.005173685566940065, 
  "x": 0.0
 }, 
 {
  "rt": 516.7375444486944, 
  "participant": 14, 
  "stimulus": 1, 
  "timestamp": 1468595079.705492, 
  "trial": 23, 
  "y": 0.010718661015557478, 
  "x": 0.02857142857142857
 }, 
 {
  "rt": 399.61048988941036, 
  "participant": 14, 
  "stimulus": 2, 
  "timestamp": 1468595079.705494, 
  "trial": 12, 
  "y": 0.006743832884727825, 
  "x": 0.05714285714285714
 }, 
 {
  "rt": 594.5200604612885, 
  "participant": 14, 
  "stimulus": 3, 
  "timestamp": 1468595079.705496, 
  "trial": 9, 
  "y": 0.017070748924440538, 
  "x": 0.08571428571428572
 }, 
 {
  "rt": 906.652703746479, 
  "participant": 14, 
  "stimulus": 4, 
  "timestamp": 1468595079.705499, 
  "trial": 0, 
  "y": 0.011449432204007815, 
  "x": 0.11428571428571428
 }, 
 {
  "rt": 664.005815868544, 
  "participant": 14, 
  "stimulus": 5, 
  "timestamp": 1468595079.705501, 
  "trial": 13, 
  "y": 0.0467369836336225, 
  "x": 0.14285714285714285
 }, 
 {
  "rt": 734.2667138001126, 
  "participant": 14, 
  "stimulus": 6, 
  "timestamp": 1468595079.705503, 
  "trial": 8, 
  "y": 0.16911602133504103, 
  "x": 0.17142857142857143
 }, 
 {
  "rt": 535.737325809289, 
  "participant": 14, 
  "stimulus": 7, 
  "timestamp": 1468595079.705506, 
  "trial": 32, 
  "y": 0.05715525887247903, 
  "x": 0.19999999999999998
 }, 
 {
  "rt": 963.9120328519916, 
  "participant": 14, 
  "stimulus": 8, 
  "timestamp": 1468595079.705508, 
  "trial": 26, 
  "y": 0.07280248930233847, 
  "x": 0.22857142857142856
 }, 
 {
  "rt": 819.4397023167165, 
  "participant": 14, 
  "stimulus": 9, 
  "timestamp": 1468595079.705514, 
  "trial": 3, 
  "y": 0.02678978628485374, 
  "x": 0.2571428571428571
 }, 
 {
  "rt": 488.66695130850064, 
  "participant": 14, 
  "stimulus": 10, 
  "timestamp": 1468595079.705516, 
  "trial": 18, 
  "y": 0.19007992671780596, 
  "x": 0.2857142857142857
 }, 
 {
  "rt": 713.5464412489995, 
  "participant": 14, 
  "stimulus": 11, 
  "timestamp": 1468595079.705518, 
  "trial": 16, 
  "y": 0.06816591073744967, 
  "x": 0.3142857142857143
 }, 
 {
  "rt": 626.8275833748144, 
  "participant": 14, 
  "stimulus": 12, 
  "timestamp": 1468595079.705521, 
  "trial": 6, 
  "y": 0.08468918660175363, 
  "x": 0.34285714285714286
 }, 
 {
  "rt": 963.3593872882079, 
  "participant": 14, 
  "stimulus": 13, 
  "timestamp": 1468595079.705523, 
  "trial": 4, 
  "y": 0.3255734175795317, 
  "x": 0.37142857142857144
 }, 
 {
  "rt": 440.15114792542965, 
  "participant": 14, 
  "stimulus": 14, 
  "timestamp": 1468595079.705525, 
  "trial": 21, 
  "y": 0.3059842009649018, 
  "x": 0.39999999999999997
 }, 
 {
  "rt": 261.90220346937963, 
  "participant": 14, 
  "stimulus": 15, 
  "timestamp": 1468595079.705528, 
  "trial": 30, 
  "y": 0.5969781505881891, 
  "x": 0.42857142857142855
 }, 
 {
  "rt": 346.13470629255266, 
  "participant": 14, 
  "stimulus": 16, 
  "timestamp": 1468595079.70553, 
  "trial": 10, 
  "y": 0.733861896707412, 
  "x": 0.45714285714285713
 }, 
 {
  "rt": 520.4813910410973, 
  "participant": 14, 
  "stimulus": 17, 
  "timestamp": 1468595079.705532, 
  "trial": 5, 
  "y": 0.3356949256680965, 
  "x": 0.4857142857142857
 }, 
 {
  "rt": 879.1148328053573, 
  "participant": 14, 
  "stimulus": 18, 
  "timestamp": 1468595079.705535, 
  "trial": 34, 
  "y": 0.5673958576975151, 
  "x": 0.5142857142857142
 }, 
 {
  "rt": 433.7649841487187, 
  "participant": 14, 
  "stimulus": 19, 
  "timestamp": 1468595079.705537, 
  "trial": 27, 
  "y": 0.8992561361700105, 
  "x": 0.5428571428571428
 }, 
 {
  "rt": 727.5558257412116, 
  "participant": 14, 
  "stimulus": 20, 
  "timestamp": 1468595079.705539, 
  "trial": 15, 
  "y": 0.8430137391144175, 
  "x": 0.5714285714285714
 }, 
 {
  "rt": 698.9548683578881, 
  "participant": 14, 
  "stimulus": 21, 
  "timestamp": 1468595079.705542, 
  "trial": 24, 
  "y": 0.8472313419722737, 
  "x": 0.6
 }, 
 {
  "rt": 530.8596429096212, 
  "participant": 14, 
  "stimulus": 22, 
  "timestamp": 1468595079.705544, 
  "trial": 25, 
  "y": 0.9303397735010458, 
  "x": 0.6285714285714286
 }, 
 {
  "rt": 237.73768765120656, 
  "participant": 14, 
  "stimulus": 23, 
  "timestamp": 1468595079.705546, 
  "trial": 1, 
  "y": 0.7244863210383315, 
  "x": 0.6571428571428571
 }, 
 {
  "rt": 809.1116060879717, 
  "participant": 14, 
  "stimulus": 24, 
  "timestamp": 1468595079.705548, 
  "trial": 2, 
  "y": 0.9237008359566063, 
  "x": 0.6857142857142857
 }, 
 {
  "rt": 459.08358945114884, 
  "participant": 14, 
  "stimulus": 25, 
  "timestamp": 1468595079.705551, 
  "trial": 31, 
  "y": 0.9721346551482618, 
  "x": 0.7142857142857143
 }, 
 {
  "rt": 532.7851569015539, 
  "participant": 14, 
  "stimulus": 26, 
  "timestamp": 1468595079.705553, 
  "trial": 14, 
  "y": 0.9828672750140447, 
  "x": 0.7428571428571429
 }, 
 {
  "rt": 485.5438964685911, 
  "participant": 14, 
  "stimulus": 27, 
  "timestamp": 1468595079.705555, 
  "trial": 17, 
  "y": 0.8708056431395168, 
  "x": 0.7714285714285714
 }, 
 {
  "rt": 742.1997061837618, 
  "participant": 14, 
  "stimulus": 28, 
  "timestamp": 1468595079.705558, 
  "trial": 7, 
  "y": 0.9398187271981554, 
  "x": 0.7999999999999999
 }, 
 {
  "rt": 260.3836672711789, 
  "participant": 14, 
  "stimulus": 29, 
  "timestamp": 1468595079.70556, 
  "trial": 35, 
  "y": 0.9751183789983916, 
  "x": 0.8285714285714285
 }, 
 {
  "rt": 666.1423599764382, 
  "participant": 14, 
  "stimulus": 30, 
  "timestamp": 1468595079.705563, 
  "trial": 20, 
  "y": 0.9638211560677742, 
  "x": 0.8571428571428571
 }, 
 {
  "rt": 219.48307559056843, 
  "participant": 14, 
  "stimulus": 31, 
  "timestamp": 1468595079.705565, 
  "trial": 33, 
  "y": 0.9696849406308781, 
  "x": 0.8857142857142857
 }, 
 {
  "rt": 1002.3061403368888, 
  "participant": 14, 
  "stimulus": 32, 
  "timestamp": 1468595079.705567, 
  "trial": 19, 
  "y": 0.9920520257869995, 
  "x": 0.9142857142857143
 }, 
 {
  "rt": 678.4258269640951, 
  "participant": 14, 
  "stimulus": 33, 
  "timestamp": 1468595079.70557, 
  "trial": 29, 
  "y": 0.9832943486111312, 
  "x": 0.9428571428571428
 }, 
 {
  "rt": 506.8062213417878, 
  "participant": 14, 
  "stimulus": 34, 
  "timestamp": 1468595079.705572, 
  "trial": 22, 
  "y": 0.9491348476271755, 
  "x": 0.9714285714285714
 }, 
 {
  "rt": 323.8612395676882, 
  "participant": 14, 
  "stimulus": 35, 
  "timestamp": 1468595079.705574, 
  "trial": 28, 
  "y": 0.9953296841311022, 
  "x": 1.0
 }, 
 {
  "rt": 712.9586143012975, 
  "participant": 15, 
  "stimulus": 0, 
  "timestamp": 1468595079.705578, 
  "trial": 17, 
  "y": 0.0043879619504456615, 
  "x": 0.0
 }, 
 {
  "rt": 521.8565417471389, 
  "participant": 15, 
  "stimulus": 1, 
  "timestamp": 1468595079.705581, 
  "trial": 35, 
  "y": 0.004295781728580878, 
  "x": 0.02857142857142857
 }, 
 {
  "rt": 404.02614243636674, 
  "participant": 15, 
  "stimulus": 2, 
  "timestamp": 1468595079.705583, 
  "trial": 33, 
  "y": 0.0024866984434707296, 
  "x": 0.05714285714285714
 }, 
 {
  "rt": 617.33436429136, 
  "participant": 15, 
  "stimulus": 3, 
  "timestamp": 1468595079.705585, 
  "trial": 7, 
  "y": 0.041925364696931595, 
  "x": 0.08571428571428572
 }, 
 {
  "rt": 900.2640855191987, 
  "participant": 15, 
  "stimulus": 4, 
  "timestamp": 1468595079.705588, 
  "trial": 31, 
  "y": 0.002273280452860716, 
  "x": 0.11428571428571428
 }, 
 {
  "rt": 664.5522901844924, 
  "participant": 15, 
  "stimulus": 5, 
  "timestamp": 1468595079.70559, 
  "trial": 22, 
  "y": 0.005113410376316718, 
  "x": 0.14285714285714285
 }, 
 {
  "rt": 704.8045062483372, 
  "participant": 15, 
  "stimulus": 6, 
  "timestamp": 1468595079.705592, 
  "trial": 30, 
  "y": 0.027610498950880958, 
  "x": 0.17142857142857143
 }, 
 {
  "rt": 571.5063310572306, 
  "participant": 15, 
  "stimulus": 7, 
  "timestamp": 1468595079.705595, 
  "trial": 29, 
  "y": 0.14541249389656835, 
  "x": 0.19999999999999998
 }, 
 {
  "rt": 973.284568180965, 
  "participant": 15, 
  "stimulus": 8, 
  "timestamp": 1468595079.705597, 
  "trial": 12, 
  "y": 0.19709037063610804, 
  "x": 0.22857142857142856
 }, 
 {
  "rt": 776.365557385838, 
  "participant": 15, 
  "stimulus": 9, 
  "timestamp": 1468595079.705599, 
  "trial": 11, 
  "y": 0.027026103374286774, 
  "x": 0.2571428571428571
 }, 
 {
  "rt": 494.1769139728792, 
  "participant": 15, 
  "stimulus": 10, 
  "timestamp": 1468595079.705602, 
  "trial": 32, 
  "y": 0.0894401992530912, 
  "x": 0.2857142857142857
 }, 
 {
  "rt": 720.0807262000783, 
  "participant": 15, 
  "stimulus": 11, 
  "timestamp": 1468595079.705604, 
  "trial": 3, 
  "y": 0.03332355842288819, 
  "x": 0.3142857142857143
 }, 
 {
  "rt": 638.0586585733345, 
  "participant": 15, 
  "stimulus": 12, 
  "timestamp": 1468595079.705606, 
  "trial": 13, 
  "y": 0.3634962086708191, 
  "x": 0.34285714285714286
 }, 
 {
  "rt": 924.8148918714786, 
  "participant": 15, 
  "stimulus": 13, 
  "timestamp": 1468595079.705609, 
  "trial": 5, 
  "y": 0.05939702752566963, 
  "x": 0.37142857142857144
 }, 
 {
  "rt": 404.4295938739682, 
  "participant": 15, 
